ID,Elapsed Time (s),Acceleration_x,Acceleration_y,Acceleration_z,Gravity_x,Gravity_y,Gravity_z,Angular Velocity_x,Angular Velocity_y,Angular Velocity_z,Orientation_x,Orientation_y,Orientation_z,Character
1,2.93300035991706e-06,1.5682021379470825,-2.7700912952423096,9.349357604980469,1.6443290710449219,-2.8050763607025146,9.251924514770508,-0.013439035043120384,0.012217304669320583,0.019547687843441963,0.05925000086426735,-0.15268699824810028,0.9765650033950806,Hello
1,0.0006403180013876,1.4484920501708984,-2.9017724990844727,9.375694274902344,1.6397017240524292,-2.8111207485198975,9.250911712646484,-0.03420845419168472,0.00855211354792118,0.02321287989616394,0.05925000086426735,-0.15268699824810028,0.9765650033950806,Hello
1,0.0013480350025929,1.5203180313110352,-2.8107926845550537,9.315838813781738,1.6375364065170288,-2.819868564605713,9.248632431030273,-0.04153883829712868,0.006108652334660292,0.01710422709584236,0.05826599895954132,-0.1528329998254776,0.976688027381897,Hello
1,0.0477767570009746,1.5538369417190552,-2.82515811920166,9.3828763961792,1.6346640586853027,-2.8279829025268555,9.246663093566895,-0.028099801391363144,0.00855211354792118,0.018325956538319588,0.05826599895954132,-0.1528329998254776,0.976688027381897,Hello
1,0.0506146059997263,1.53707754611969,-2.853888511657715,9.327810287475586,1.6333327293395996,-2.8293874263763428,9.246468544006348,-0.036651913076639175,0.0012217304902151227,0.013439035043120384,0.05826599895954132,-0.1528329998254776,0.976688027381897,Hello
1,0.0513402020005742,1.5322890281677246,-2.8826189041137695,9.318233489990234,1.6329563856124878,-2.833681106567383,9.245220184326172,-0.02687807008624077,-0.0024434609804302454,0.02076941914856434,0.05826599895954132,-0.1528329998254776,0.976688027381897,Hello
1,0.0518953120008518,1.522712230682373,-2.7054479122161865,9.315838813781738,1.6477046012878418,-2.8049192428588867,9.251372337341309,0.00366519158706069,0.01710422709584236,0.013439035043120384,0.05925000086426735,-0.15268699824810028,0.9765650033950806,Hello
1,0.0967257539996353,1.4748282432556152,-2.7557260990142822,9.32541561126709,1.6314116716384888,-2.8361611366271973,9.244731903076172,0.0024434609804302454,0.004886921960860491,0.015882495790719986,0.05826599895954132,-0.1528329998254776,0.976688027381897,Hello
1,0.0973252139992837,1.5610195398330688,-2.7916390895843506,9.35654067993164,1.6280810832977295,-2.8353335857391357,9.245573043823242,0.00366519158706069,0.0012217304902151227,0.021991148591041565,0.05826599895954132,-0.1528329998254776,0.976688027381897,Hello
1,0.0992498699997668,1.4867992401123047,-2.849100112915039,9.344569206237793,1.6263139247894287,-2.8351845741271973,9.245929718017578,-0.0024434609804302454,-0.0024434609804302454,0.019547687843441963,0.05784900113940239,-0.15367799997329712,0.9767019748687744,Hello
1,0.145580952001183,1.4844050407409668,-2.734178304672241,9.306262016296387,1.625076413154602,-2.8362414836883545,9.24582290649414,-0.02321287989616394,-0.0012217304902151227,0.010995574295520782,0.05784900113940239,-0.15367799997329712,0.9767019748687744,Hello
1,0.146158411000215,1.5705963373184204,-2.8203697204589844,9.272743225097656,1.6264326572418213,-2.8440983295440674,9.243170738220215,-0.036651913076639175,-0.004886921960860491,0.015882495790719986,0.05784900113940239,-0.15367799997329712,0.9767019748687744,Hello
1,0.195026600002166,1.5298948287963867,-2.8610711097717285,9.284713745117188,1.6279300451278687,-2.8519575595855713,9.240486145019531,-0.02076941914856434,-0.0012217304902151227,0.00855211354792118,0.05784900113940239,-0.15367799997329712,0.9767019748687744,Hello
1,0.19553198200083,1.4413094520568848,-2.851494312286377,9.299078941345215,1.6267437934875488,-2.853891611099243,9.240097999572754,0.00855211354792118,0.0012217304902151227,0.006108652334660292,0.05784900113940239,-0.15367799997329712,0.9767019748687744,Hello
1,0.196105601000454,1.5083470344543457,-2.762908697128296,9.35654067993164,1.624476671218872,-2.850353240966797,9.241588592529297,0.010995574295520782,0.00733038317412138,0.0024434609804302454,0.057700999081134796,-0.15439699590206146,0.9766719937324524,Hello
1,0.242806849000772,1.5969325304031372,-2.784456491470337,9.397241592407227,1.623245358467102,-2.84887957572937,9.24225902557373,-0.018325956538319588,0.0012217304902151227,0.00733038317412138,0.057700999081134796,-0.15439699590206146,0.9766719937324524,Hello
1,0.244408692000434,1.4700398445129395,-2.935291290283203,9.275136947631836,1.6225615739822388,-2.8586606979370117,9.239357948303223,-0.05619960278272629,-0.0024434609804302454,0.004886921960860491,0.057700999081134796,-0.15439699590206146,0.9766719937324524,Hello
1,0.291514958000334,1.5298948287963867,-2.8419175148010254,9.375694274902344,1.6219738721847534,-2.8707170486450195,9.235722541809082,-0.05864306539297104,0.0,0.00855211354792118,0.057700999081134796,-0.15439699590206146,0.9766719937324524,Hello
1,0.292207868002151,1.5298948287963867,-2.829946517944336,9.373299598693848,1.6208775043487549,-2.8780908584594727,9.233619689941406,-0.051312681287527084,0.0,0.0012217304902151227,0.057700999081134796,-0.15439699590206146,0.9766719937324524,Hello
1,0.340979814001912,1.680729627609253,-2.7772738933563232,9.710882186889648,1.6238042116165161,-2.885612964630127,9.230757713317871,-0.039095375686883926,-0.004886921960860491,-0.00855211354792118,0.05737999826669693,-0.1561650037765503,0.9764220118522644,Hello
1,0.34165707899956,1.6400281190872192,-1.86508309841156,9.99100399017334,1.624140977859497,-2.886383533477783,9.230457305908203,-0.10873401165008545,0.06475171446800232,-0.030543262138962746,0.05737999826669693,-0.1561650037765503,0.9764220118522644,Hello
1,0.343241601000045,1.357512354850769,-1.8339585065841675,9.816226959228516,1.6130156517028809,-2.92817759513855,9.219237327575684,-0.5094616413116455,0.06841690838336945,-0.05375614017248154,0.05737999826669693,-0.1561650037765503,0.9764220118522644,Hello
1,0.389701682001032,1.4053963422775269,-2.248155355453491,9.883264541625977,1.6030867099761963,-3.0572826862335205,9.178972244262695,-0.9578366875648499,0.07452555745840073,-0.06108652427792549,0.05737999826669693,-0.1561650037765503,0.9764220118522644,Hello
1,0.390634013001545,1.194706678390503,-3.383007049560547,9.550470352172852,1.5918153524398804,-3.269493341445923,9.10752010345459,-1.3377948999404907,0.0757472887635231,-0.1270599663257599,0.05737999826669693,-0.1561650037765503,0.9764220118522644,Hello
1,0.438386044999788,1.3623007535934448,-3.3638534545898438,9.402029991149902,1.5865529775619507,-3.4421842098236084,9.04458999633789,-1.3292428255081177,0.09162978827953339,-0.16737708449363708,0.05022300034761429,-0.18064500391483307,0.9717350006103516,Hello
1,0.439432079001563,0.5410895943641663,-2.609679937362671,10.512939453125,1.5770775079727173,-3.737717390060425,8.92819595336914,-1.3451253175735474,0.09651670604944229,-0.2125810980796814,0.05022300034761429,-0.18064500391483307,0.9717350006103516,Hello
1,0.439990123002644,0.40940847992897034,-3.8594532012939453,9.581595420837402,1.5914565324783325,-4.008059501647949,8.807559967041016,-1.832595705986023,-0.13561208546161652,-0.2724458873271942,0.05022300034761429,-0.18064500391483307,0.9717350006103516,Hello
1,0.487712960999488,0.5267243981361389,-6.828263282775879,9.813833236694336,1.6667295694351196,-4.363490104675293,8.622780799865723,-2.1453588008880615,-0.3799581825733185,-0.4153883755207062,0.05022300034761429,-0.18064500391483307,0.9717350006103516,Hello
1,0.488255639000272,1.2258312702178955,-8.607154846191406,10.029311180114746,1.8029651641845703,-4.690624713897705,8.42126750946045,-1.8167132139205933,-0.6230825781822205,-0.6670648455619812,0.05022300034761429,-0.18064500391483307,0.9717350006103516,Hello
1,0.535675569000887,2.190694570541382,-8.705317497253418,10.500968933105469,1.9343336820602417,-4.870417594909668,8.28901481628418,-1.4220943450927734,-0.8148942589759827,-0.8405506014823914,0.0519229993224144,-0.2636379897594452,0.9493209719657898,Hello
1,0.536379584002134,0.6655880808830261,-7.122750282287598,10.563218116760254,2.162071943283081,-5.063945293426514,8.114943504333496,-1.33168625831604,-0.970054030418396,-0.9395107626914978,0.0519229993224144,-0.2636379897594452,0.9493209719657898,Hello
1,0.583767596002872,3.4093432426452637,-9.32541561126709,10.134655952453613,2.513901948928833,-5.296023845672607,7.861476421356201,-1.4868459701538086,-1.3524556159973145,-1.1129964590072632,0.0519229993224144,-0.2636379897594452,0.9493209719657898,Hello
1,0.586451512001077,3.6104562282562256,-10.414777755737305,8.877699851989746,2.789219856262207,-5.413328647613525,7.686775207519531,-1.244943380355835,-1.6016886234283447,-1.7165313959121704,0.0519229993224144,-0.2636379897594452,0.9493209719657898,Hello
1,0.633074956000201,3.670311212539673,-8.949525833129883,9.684545516967773,3.2310173511505127,-5.460145473480225,7.477815628051758,-0.2321287989616394,-1.7006487846374512,-1.9608774185180664,0.0519229993224144,-0.2636379897594452,0.9493209719657898,Hello
1,0.633709616002307,3.7660791873931885,-7.383718013763428,9.72285270690918,3.86357045173645,-5.279289722442627,7.305635452270508,0.07452555745840073,-1.853365182876587,-2.252871036529541,0.1264750063419342,-0.32061898708343506,0.9145969748497009,Hello
1,0.637957940001797,4.4723687171936035,-7.620744228363037,8.702922821044922,4.402184963226318,-5.102620601654053,7.124213695526123,-0.3078760802745819,-2.1319196224212646,-2.4825563430786133,0.1264750063419342,-0.32061898708343506,0.9145969748497009,Hello
1,0.681764347002172,5.080495834350586,-7.115567684173584,7.668628215789795,4.973476886749268,-4.922133922576904,6.8707733154296875,-0.45814892649650574,-2.2369885444641113,-2.744006633758545,0.1264750063419342,-0.32061898708343506,0.9145969748497009,Hello
1,0.682536528001947,4.953603267669678,-6.224924564361572,7.398083209991455,5.373090744018555,-4.761144161224365,6.680703163146973,-0.2272418737411499,-2.211332082748413,-2.9578094482421875,0.1264750063419342,-0.32061898708343506,0.9145969748497009,Hello
1,0.684249002002616,5.288791656494141,-4.982333660125732,6.6391215324401855,5.924812316894531,-4.465517044067383,6.412966728210449,-0.06963863968849182,-2.261423110961914,-3.1386256217956543,0.1264750063419342,-0.32061898708343506,0.9145969748497009,Hello
1,0.731148953000229,5.8442463874816895,-3.512293815612793,5.731719017028809,6.477495193481445,-4.073000431060791,6.133769512176514,0.304210901260376,-2.207667112350464,-3.1618385314941406,0.2663179934024811,-0.3295449912548065,0.8542709946632385,Hello
1,0.731962969999586,6.2416839599609375,-2.389413356781006,4.570530891418457,7.127696990966797,-3.4453179836273193,5.787580966949463,0.5363397002220154,-2.046398639678955,-3.182607889175415,0.2663179934024811,-0.3295449912548065,0.8542709946632385,Hello
1,0.733185567001783,6.315904140472412,-1.3239935636520386,4.266467571258545,7.553205966949463,-2.915647268295288,5.533393859863281,0.6621779203414917,-1.8765780925750732,-3.0531044006347656,0.2663179934024811,-0.3295449912548065,0.8542709946632385,Hello
1,0.778692784002487,6.212953567504883,-0.8427590131759644,4.412513732910156,7.909069538116455,-2.3818068504333496,5.286210536956787,0.616973876953125,-1.722640037536621,-2.915048837661743,0.2663179934024811,-0.3295449912548065,0.8542709946632385,Hello
1,0.780289668000478,6.212953567504883,-0.7015010714530945,4.350264549255371,8.202863693237305,-1.874355673789978,5.036886215209961,0.3579670190811157,-1.577254056930542,-2.757445812225342,0.2663179934024811,-0.3295449912548065,0.8542709946632385,Hello
1,0.82761300600032,6.682217121124268,-0.5147533416748047,3.866635799407959,8.442527770996094,-1.4045041799545288,4.787639617919922,0.15271630883216858,-1.4611896276474,-2.621833562850952,0.38480299711227417,-0.2912899851799011,0.7862039804458618,Hello
1,0.829302711001219,6.943184852600098,-0.27054479718208313,3.3494882583618164,8.634207725524902,-0.961484432220459,4.5493292808532715,0.059864792972803116,-1.2962560653686523,-2.450791358947754,0.38480299711227417,-0.2912899851799011,0.7862039804458618,Hello
1,0.876752115000272,6.897695064544678,-0.40940847992897034,2.231395959854126,8.778899192810059,-0.5514248013496399,4.335578918457031,-0.16859880089759827,-1.0800096988677979,-2.3542747497558594,0.38480299711227417,-0.2912899851799011,0.7862039804458618,Hello
1,0.877382725000643,7.33583402633667,-0.023942016065120697,1.7884687185287476,8.879197120666504,-0.16702479124069214,4.159609317779541,-0.24190263450145721,-0.8356636762619019,-2.2321016788482666,0.38480299711227417,-0.2912899851799011,0.7862039804458618,Hello
1,0.87918669300052,7.481880187988281,0.29209262132644653,2.2673089504241943,8.942203521728516,0.20394115149974823,4.020672798156738,-0.22602014243602753,-0.7134906053543091,-2.1820106506347656,0.38480299711227417,-0.2912899851799011,0.7862039804458618,Hello
1,0.926011842002481,7.4100542068481445,0.44771572947502136,2.2816741466522217,8.973199844360352,0.5641855001449585,3.91583514213562,-0.12828169763088226,-0.5106833577156067,-2.0537290573120117,0.38480299711227417,-0.2912899851799011,0.7862039804458618,Hello
1,0.926527700001316,7.826645374298096,1.359906554222107,2.123656988143921,8.982385635375977,0.9181652665138245,3.826763868331909,0.06841690838336945,-0.4129449129104614,-1.910786509513855,0.45436498522758484,-0.2658970057964325,0.7133240103721619,Hello
1,0.976921604000381,7.891288757324219,2.4612393379211426,1.6065093278884888,8.972772598266602,1.2611563205718994,3.7508952617645264,0.16737708449363708,-0.27122417092323303,-1.7336355447769165,0.45436498522758484,-0.2658970057964325,0.7133240103721619,Hello
1,0.977537547001703,7.793126583099365,1.9967641830444336,1.9345149993896484,8.954925537109375,1.4810320138931274,3.712982416152954,0.051312681287527084,-0.11728613078594208,-1.529606580734253,0.45436498522758484,-0.2658970057964325,0.7133240103721619,Hello
1,0.977984191002179,8.178592681884766,2.5977089405059814,2.188300371170044,8.901052474975586,1.829627513885498,3.6870198249816895,0.0403171069920063,0.04886921867728233,-1.3781119585037231,0.45436498522758484,-0.2658970057964325,0.7133240103721619,Hello
1,1.02271322000161,7.94635534286499,3.318363666534424,3.021482467651367,8.841423034667969,2.0799450874328613,3.6977627277374268,0.11239920556545258,0.2076941877603531,-1.1948524713516235,0.45436498522758484,-0.2658970057964325,0.7133240103721619,Hello
1,1.02427029400133,7.977479934692383,3.0095114707946777,3.5218706130981445,8.775985717773438,2.2872512340545654,3.7310781478881836,0.02321287989616394,0.2590068578720093,-0.9724974632263184,0.4816429913043976,-0.2286670058965683,0.6715940237045288,Hello
1,1.12204320000092,7.364564418792725,1.8986018896102905,4.288015365600586,8.71654987335205,2.4409031867980957,3.772813081741333,0.03787364438176155,0.27488934993743896,-0.8112290501594543,0.4816429913043976,-0.2286670058965683,0.6715940237045288,Hello
1,1.12281957199957,7.067683219909668,8.798690795898438,4.838681697845459,8.650299072265625,2.603771686553955,3.816164016723633,0.23579397797584534,0.34208452701568604,-0.5729916095733643,0.4816429913043976,-0.2286670058965683,0.6715940237045288,Hello
1,1.12349970000287,7.7428483963012695,4.395754337310791,4.529829502105713,8.612030029296875,2.701150417327881,3.8349852561950684,0.4300491213798523,0.07208210229873657,0.13316862285137177,0.4816429913043976,-0.2286670058965683,0.6715940237045288,Hello
1,1.1239109340022,9.150638580322266,0.5482721924781799,2.3343467712402344,8.639575958251953,2.6276142597198486,3.824103593826294,-0.8820894360542297,-0.13316862285137177,0.08918632566928864,0.4816429913043976,-0.2286670058965683,0.6715940237045288,Hello
1,1.12633496600029,9.634267807006836,0.24420857429504395,3.428496837615967,8.67504596710205,2.4926021099090576,3.834174633026123,-0.66584312915802,-0.05253441259264946,0.1514945775270462,0.4819140136241913,-0.21098800003528595,0.6635980010032654,Hello
1,1.16975695800284,8.621520042419434,2.300827741622925,4.323928356170654,8.684772491455078,2.404341697692871,3.8683688640594482,-0.04764748737215996,0.1368338167667389,0.006108652334660292,0.4819140136241913,-0.21098800003528595,0.6635980010032654,Hello
1,1.17037960600283,8.549694061279297,3.023876667022705,4.69024133682251,8.668537139892578,2.4143614768981934,3.8984243869781494,-0.013439035043120384,0.12217304855585098,-0.025656340643763542,0.4819140136241913,-0.21098800003528595,0.6635980010032654,Hello
1,1.22003233800206,8.729259490966797,3.3016040325164795,4.505887508392334,8.661957740783691,2.4196255207061768,3.9097678661346436,0.0024434609804302454,0.030543262138962746,0.059864792972803116,0.4819140136241913,-0.21098800003528595,0.6635980010032654,Hello
1,1.22075004200087,9.004592895507812,4.084507942199707,3.883395195007324,8.667267799377441,2.4198319911956787,3.897857666015625,0.18448130786418915,-0.02076941914856434,0.18448130786418915,0.4819140136241913,-0.21098800003528595,0.6635980010032654,Hello
1,1.22109590400214,9.17697525024414,5.252878665924072,3.4979286193847656,8.675318717956543,2.422374963760376,3.878316879272461,0.32131510972976685,0.00366519158706069,0.37751471996307373,0.4750339984893799,-0.2178959995508194,0.6642850041389465,Hello
1,1.26661869600139,9.196128845214844,6.75883150100708,3.4572272300720215,8.694324493408203,2.3856656551361084,3.858459949493408,0.31031954288482666,0.11239920556545258,0.675616979598999,0.4750339984893799,-0.2178959995508194,0.6642850041389465,Hello
1,1.31589602299937,8.700529098510742,7.371747016906738,3.6966474056243896,8.727973937988281,2.2510862350463867,3.8633501529693604,0.5937610268592834,0.2590068578720093,1.1203268766403198,0.4750339984893799,-0.2178959995508194,0.6642850041389465,Hello
1,1.3166679950009,8.281543731689453,8.93037223815918,4.438849925994873,8.749527931213379,2.146867513656616,3.8739006519317627,1.1252137422561646,0.4300491213798523,1.7592918872833252,0.4750339984893799,-0.2178959995508194,0.6642850041389465,Hello
1,1.3181422350026,7.508216381072998,9.617507934570312,4.553771495819092,8.804856300354004,1.8191767930984497,3.9160563945770264,1.2522737979888916,0.6023131608963013,2.478891134262085,0.4750339984893799,-0.2178959995508194,0.6642850041389465,Hello
1,1.31884639000054,7.292738437652588,6.078877925872803,3.821146011352539,8.843856811523438,1.4188637733459473,3.992919921875,0.02321287989616394,0.6059783101081848,3.202155590057373,0.4709480106830597,-0.21538299322128296,0.7074699997901917,Hello
1,1.36370518700278,7.194576263427734,0.545877993106842,4.252102375030518,8.873315811157227,0.7761536240577698,4.102712631225586,-0.6609562039375305,0.5839871764183044,3.6505308151245117,0.4709480106830597,-0.21538299322128296,0.7074699997901917,Hello
1,1.3666802780026,6.75883150100708,-2.7892448902130127,4.821922302246094,8.863700866699219,0.25790685415267944,4.187920093536377,-0.3323107063770294,0.6939429044723511,3.754377841949463,0.4709480106830597,-0.21538299322128296,0.7074699997901917,Hello
1,1.41272297900287,6.4164605140686035,-5.872976779937744,6.200982570648193,8.725845336914062,-0.7667425274848938,4.409322738647461,-0.14905111491680145,0.8100073337554932,3.6053266525268555,0.4709480106830597,-0.21538299322128296,0.7074699997901917,Hello
1,1.41431504399952,5.698200225830078,-10.488997459411621,5.602431774139404,8.577119827270508,-1.4195202589035034,4.53743839263916,-0.3897320330142975,0.6682865619659424,3.109304189682007,0.4709480106830597,-0.21538299322128296,0.7074699997901917,Hello
1,1.46268015600072,5.552153587341309,-14.00368595123291,5.638344764709473,8.434045791625977,-1.9225585460662842,4.619635581970215,-0.030543262138962746,0.44715335965156555,2.3493876457214355,0.3967509865760803,-0.2865520119667053,0.7926300168037415,Hello
1,1.46333346400206,6.509834289550781,-11.267112731933594,6.169857978820801,8.322589874267578,-2.186558485031128,4.70359992980957,0.8674286603927612,0.3494149148464203,1.2718214988708496,0.3967509865760803,-0.2865520119667053,0.7926300168037415,Hello
1,1.46530749900194,7.630321025848389,-7.467514991760254,5.566518783569336,8.259234428405762,-2.2545392513275146,4.782520771026611,0.789237916469574,0.12339477986097336,0.38728857040405273,0.3967509865760803,-0.2865520119667053,0.7926300168037415,Hello
1,1.51078377600061,8.480262756347656,-4.809951305389404,4.999093055725098,8.251874923706055,-2.242784261703491,4.80071496963501,0.4239404797554016,-0.14538592100143433,-0.11728613078594208,0.3967509865760803,-0.2865520119667053,0.7926300168037415,Hello
1,1.51236753000194,8.753201484680176,-2.7557260990142822,4.663905143737793,8.276639938354492,-2.1973838806152344,4.779031276702881,0.29565876722335815,-0.27488934993743896,-0.3591887652873993,0.3967509865760803,-0.2865520119667053,0.7926300168037415,Hello
1,1.51299366999956,8.655038833618164,-0.9720458984375,4.786009311676025,8.334587097167969,-2.083540201187134,4.729048252105713,0.18814650177955627,-0.3384193480014801,-0.36163222789764404,0.38481101393699646,-0.28206899762153625,0.8176079988479614,Hello
1,1.55979556199964,8.508993148803711,-1.2258312702178955,4.9583916664123535,8.391012191772461,-1.9948372840881348,4.667115211486816,-0.030543262138962746,-0.3689626157283783,-0.27611109614372253,0.38481101393699646,-0.28206899762153625,0.8176079988479614,Hello
1,1.56037665300028,8.33182144165039,-0.933738648891449,4.972756862640381,8.428611755371094,-1.931727409362793,4.625726222991943,-0.00855211354792118,-0.3286454975605011,-0.18570303916931152,0.38481101393699646,-0.28206899762153625,0.8176079988479614,Hello
1,1.60766192600204,8.068459510803223,-0.9911994934082031,4.879383087158203,8.466861724853516,-1.8835011720657349,4.575484752655029,0.05742133408784866,-0.28955012559890747,-0.13439035415649414,0.38481101393699646,-0.28206899762153625,0.8176079988479614,Hello
1,1.60927620100119,7.738059997558594,-1.2210428714752197,4.7620673179626465,8.494094848632812,-1.8592019081115723,4.534766674041748,0.05742133408784866,-0.21013765037059784,-0.039095375686883926,0.38481101393699646,-0.28206899762153625,0.8176079988479614,Hello
1,1.65652571499959,7.314286231994629,-1.2952631711959839,4.726154327392578,8.511343002319336,-1.850428819656372,4.505923271179199,0.09040805697441101,-0.10262536257505417,0.05009094998240471,0.4006359875202179,-0.2786639928817749,0.8097419738769531,Hello
1,1.65711134700177,6.950367450714111,-1.479616641998291,4.721365928649902,8.515349388122559,-1.8582427501678467,4.4951252937316895,0.03420845419168472,-0.012217304669320583,0.1270599663257599,0.4006359875202179,-0.2786639928817749,0.8097419738769531,Hello
1,1.65915655100252,6.7061591148376465,-1.7860745191574097,4.141968727111816,8.50949764251709,-1.8879908323287964,4.493812084197998,-0.1062905490398407,0.039095375686883926,0.21991148591041565,0.4006359875202179,-0.2786639928817749,0.8097419738769531,Hello
1,1.70595753499947,6.72531270980835,-1.9153614044189453,3.1723172664642334,8.496444702148438,-1.9491260051727295,4.492410659790039,-0.28099802136421204,0.11362093687057495,0.34574973583221436,0.4006359875202179,-0.2786639928817749,0.8097419738769531,Hello
1,1.70682323599976,6.572083473205566,-1.8579005002975464,3.045424461364746,8.468450546264648,-2.043848991394043,4.503156661987305,-0.18814650177955627,0.33719760179519653,0.49357911944389343,0.4006359875202179,-0.2786639928817749,0.8097419738769531,Hello
1,1.75514260000273,6.294356346130371,-2.0398597717285156,3.179499864578247,8.409759521484375,-2.1472346782684326,4.564615726470947,0.1417207419872284,0.6450737118721008,0.6145304441452026,0.3907809853553772,-0.2861430048942566,0.8150169849395752,Hello
1,1.7557364029999,5.870582580566406,-2.9328970909118652,3.732560396194458,8.314990997314453,-2.239694356918335,4.692023754119873,0.32986724376678467,0.9492846131324768,0.6646214127540588,0.3907809853553772,-0.2861430048942566,0.8150169849395752,Hello
1,1.75624339199931,5.875370979309082,-3.1100680828094482,4.37420654296875,8.186521530151367,-2.3302178382873535,4.870456695556641,0.15393804013729095,1.1887437105178833,0.6548475623130798,0.3907809853553772,-0.2861430048942566,0.8150169849395752,Hello
1,1.80312539300212,6.440402507781982,-2.5977089405059814,4.9368438720703125,8.029901504516602,-2.4317750930786133,5.077159404754639,0.14538592100143433,1.361007809638977,0.6866125464439392,0.3907809853553772,-0.2861430048942566,0.8150169849395752,Hello
1,1.8052679579996,6.390124320983887,-3.1914708614349365,5.140350818634033,7.845291614532471,-2.5391738414764404,5.30795431137085,0.17470745742321014,1.5173892974853516,0.7257078886032104,0.3907809853553772,-0.2861430048942566,0.8150169849395752,Hello
1,1.85163403200204,6.596025466918945,-2.9520506858825684,4.963180065155029,7.635216236114502,-2.647181272506714,5.555746078491211,0.1319468915462494,1.6407840251922607,0.7550294399261475,0.3344790041446686,-0.2721010148525238,0.8499860167503357,Hello
1,1.852152544001,6.651092529296875,-2.8993782997131348,4.730942726135254,7.404550552368164,-2.7527246475219727,5.810811519622803,0.2223549485206604,1.7727309465408325,0.8051204085350037,0.3344790041446686,-0.2721010148525238,0.8499860167503357,Hello
1,1.85424133000197,6.368576526641846,-3.821146011352539,4.146757125854492,7.143524169921875,-2.8515169620513916,6.083528518676758,0.3689626157283783,1.9437731504440308,0.846659243106842,0.3344790041446686,-0.2721010148525238,0.8499860167503357,Hello
1,1.90169122299994,6.071695327758789,-3.3925838470458984,4.654327869415283,6.846321105957031,-2.9299376010894775,6.38073205947876,0.455705463886261,2.1539108753204346,0.846659243106842,0.3344790041446686,-0.2721010148525238,0.8499860167503357,Hello
1,1.90233538300163,5.990292549133301,-3.272873640060425,7.046135425567627,6.492220878601074,-3.001892566680908,6.708956718444824,0.6120869517326355,2.233323335647583,0.8845328688621521,0.3344790041446686,-0.2721010148525238,0.8499860167503357,Hello
1,1.95078612100042,6.5265936851501465,-3.375824451446533,7.663839817047119,6.023090362548828,-3.0335230827331543,7.119726181030273,0.6572909951210022,2.1844542026519775,0.7953465580940247,0.2414879947900772,-0.2376530021429062,0.896261990070343,Hello
1,1.95169994400203,6.476315498352051,-2.4396915435791016,7.6111674308776855,5.779261589050293,-3.0166397094726562,7.326009273529053,0.9272934198379517,2.174680233001709,0.8063421249389648,0.2414879947900772,-0.2376530021429062,0.896261990070343,Hello
1,1.95213464500193,6.277596950531006,-0.49320554733276367,8.595184326171875,5.303426265716553,-2.91703200340271,7.715890884399414,0.9834930300712585,2.166128158569336,0.9297369122505188,0.2414879947900772,-0.2376530021429062,0.896261990070343,Hello
1,1.99767727200015,6.167463779449463,-0.8403648138046265,9.287108421325684,5.0437331199646,-2.8687758445739746,7.9057745933532715,0.5729916095733643,2.0036380290985107,1.0323622226715088,0.2414879947900772,-0.2376530021429062,0.896261990070343,Hello
1,1.99924279700281,6.110002517700195,-1.702277421951294,9.75637149810791,4.677977561950684,-2.8909575939178467,8.119684219360352,0.02687807008624077,1.8118263483047485,1.1129964590072632,0.2414879947900772,-0.2376530021429062,0.896261990070343,Hello
1,2.04675275400223,5.839457988739014,-2.3127987384796143,10.644620895385742,4.325664520263672,-2.9961130619049072,8.27540397644043,-0.09896016865968704,1.683544635772705,1.1606439352035522,0.16177700459957123,-0.19470199942588806,0.9320690035820007,Hello
1,2.04714324499946,5.310339450836182,-2.43011474609375,11.314997673034668,3.9817733764648438,-3.0910894870758057,8.411957740783691,0.39584067463874817,1.549154281616211,1.1985175609588623,0.16177700459957123,-0.19470199942588806,0.9320690035820007,Hello
1,2.09597888700228,4.491522312164307,-2.676717519760132,11.650185585021973,3.65307354927063,-3.088529586791992,8.560749053955078,0.8894197940826416,1.3658946752548218,1.2498302459716797,0.16177700459957123,-0.19470199942588806,0.9320690035820007,Hello
1,2.09657394700116,4.077325344085693,-2.7533318996429443,11.183316230773926,3.3545145988464355,-3.0202200412750244,8.706083297729492,0.7232644557952881,1.1582005023956299,1.1618657112121582,0.16177700459957123,-0.19470199942588806,0.9320690035820007,Hello
1,2.09945859200161,3.620033025741577,-2.607285737991333,10.757147789001465,3.0933611392974854,-2.979668140411377,8.816069602966309,0.3677408695220947,0.9761626720428467,1.1545352935791016,0.16177700459957123,-0.19470199942588806,0.9320690035820007,Hello
1,2.14397613700203,3.3949780464172363,-2.5761611461639404,11.17852783203125,2.8604841232299805,-2.987405300140381,8.891761779785156,0.3078760802745819,0.8344419002532959,1.177748203277588,0.1182750016450882,-0.1677580028772354,0.9549440145492554,Hello
1,2.14563371500117,2.4660277366638184,-3.6583402156829834,11.853693008422852,2.6484627723693848,-2.9946606159210205,8.954777717590332,0.27122417092323303,0.7318165898323059,1.0751228332519531,0.1182750016450882,-0.1677580028772354,0.9549440145492554,Hello
1,2.19271008800206,1.6543933153152466,-4.390965938568115,12.071564674377441,2.4152145385742188,-3.0276646614074707,9.00946044921875,-0.030543262138962746,0.5571091175079346,0.8808676600456238,0.1182750016450882,-0.1677580028772354,0.9549440145492554,Hello
1,2.24204783000096,1.2713210582733154,-3.734954595565796,11.281478881835938,2.3133492469787598,-3.080212116241455,9.018375396728516,-0.4434881806373596,0.3481931984424591,0.8148942589759827,0.1182750016450882,-0.1677580028772354,0.9549440145492554,Hello
1,2.242749680001,0.8954314589500427,-3.3231520652770996,9.306262016296387,2.156017541885376,-3.2790825366973877,8.987191200256348,-0.789237916469574,0.1514945775270462,0.8332201838493347,0.1182750016450882,-0.1677580028772354,0.9549440145492554,Hello
1,2.24426484800279,0.4668693244457245,-4.039018154144287,7.68538761138916,2.092108726501465,-3.4251046180725098,8.947744369506836,-0.9285151958465576,0.006108652334660292,0.7782423496246338,0.10521700233221054,-0.17865000665187836,0.962244987487793,Hello
1,2.24486312100271,-0.07422025501728058,-5.250484466552734,7.7763671875,1.9902639389038086,-3.680830240249634,8.869089126586914,-0.5815436840057373,0.03176499158143997,0.7293730974197388,0.10521700233221054,-0.17865000665187836,0.962244987487793,Hello
1,2.29078988300171,-0.1628057211637497,-5.413290023803711,8.343792915344238,1.860408902168274,-3.8280396461486816,8.834895133972168,-0.16371189057826996,0.07696902006864548,0.5448917746543884,0.10521700233221054,-0.17865000665187836,0.962244987487793,Hello
1,2.29246911200244,-0.07422025501728058,-3.8498764038085938,8.252813339233398,1.7539739608764648,-3.86362361907959,8.841175079345703,0.3029891550540924,0.17959438264369965,0.39217549562454224,0.10521700233221054,-0.17865000665187836,0.962244987487793,Hello
1,2.33876087200042,0.0071826050989329815,-3.1890766620635986,8.015787124633789,1.6969913244247437,-3.82789945602417,8.867795944213867,0.31520646810531616,0.26511552929878235,0.28466320037841797,0.10521700233221054,-0.17865000665187836,0.962244987487793,Hello
1,2.34027988200251,-0.4429273009300232,-4.211400985717773,9.363722801208496,1.5910550355911255,-3.821882724761963,8.890002250671387,-0.39217549562454224,0.23579397797584534,0.23579397797584534,0.09822999686002731,-0.18780800700187683,0.9650120139122009,Hello
1,2.34088779300146,-0.5219359993934631,-6.323086738586426,12.497733116149902,1.5304113626480103,-3.9268453121185303,8.854835510253906,-0.5693264007568359,0.12950342893600464,0.16737708449363708,0.09822999686002731,-0.18780800700187683,0.9650120139122009,Hello
1,2.38782762399933,1.0797849893569946,-5.171475887298584,10.244789123535156,1.507731556892395,-3.990912437438965,8.830048561096191,0.21502456068992615,-0.1111774742603302,0.00366519158706069,0.09822999686002731,-0.18780800700187683,0.9650120139122009,Hello
1,2.38930863900168,1.192312479019165,-0.7469909191131592,9.023746490478516,1.5508856773376465,-3.884172201156616,8.870080947875977,0.5693264007568359,-0.1417207419872284,0.02076941914856434,0.09822999686002731,-0.18780800700187683,0.9650120139122009,Hello
1,2.43827907800005,0.8571242094039917,-2.612074136734009,9.50498104095459,1.5576283931732178,-3.7934670448303223,8.908074378967285,-0.015882495790719986,-0.2541199326515198,0.036651913076639175,0.09822999686002731,-0.18780800700187683,0.9650120139122009,Hello
1,2.43881966000117,1.5275006294250488,-4.565742492675781,8.803479194641113,1.6015067100524902,-3.841531991958618,8.879650115966797,-0.5143485069274902,-0.3494149148464203,0.01710422709584236,0.1021609976887703,-0.1881529986858368,0.9650689959526062,Hello
1,2.44026009700247,2.032677173614502,-4.110844135284424,8.89685344696045,1.6738337278366089,-3.9224326610565186,8.830808639526367,0.02076941914856434,-0.16982053220272064,0.021991148591041565,0.1021609976887703,-0.1881529986858368,0.9650689959526062,Hello
1,2.48589875800099,1.6950948238372803,-3.466804027557373,9.184157371520996,1.6952087879180908,-3.877955675125122,8.846362113952637,0.2321287989616394,-0.03420845419168472,0.0024434609804302454,0.1021609976887703,-0.1881529986858368,0.9650689959526062,Hello
1,2.48657651200119,1.8387469053268433,-3.885789394378662,9.028534889221191,1.712632179260254,-3.8698976039886475,8.846534729003906,-0.17348572611808777,-0.09529497474431992,0.01466076634824276,0.1021609976887703,-0.1881529986858368,0.9650689959526062,Hello
1,2.53478119500141,1.9249382019042969,-4.027047157287598,8.935160636901855,1.7370774745941162,-3.9052977561950684,8.826188087463379,-0.16004669666290283,-0.09529497474431992,0.02321287989616394,0.1021609976887703,-0.1881529986858368,0.9650689959526062,Hello
1,2.5353508320004,1.6855180263519287,-3.711012601852417,8.904036521911621,1.7509565353393555,-3.908992290496826,8.821808815002441,0.03176499158143997,-0.07696902006864548,0.04886921867728233,0.10713600367307663,-0.1923770010471344,0.9639580249786377,Hello
1,2.53616673500073,1.5705963373184204,-4.031835556030273,8.858546257019043,1.752813458442688,-3.9047861099243164,8.82330322265625,0.03298672288656235,-0.09040805697441101,0.03176499158143997,0.10713600367307663,-0.1923770010471344,0.9639580249786377,Hello
1,2.58415658200101,1.6376339197158813,-4.369418144226074,8.698134422302246,1.7631292343139648,-3.915735960006714,8.816391944885254,-0.00366519158706069,-0.08429940044879913,0.0,0.10713600367307663,-0.1923770010471344,0.9639580249786377,Hello
1,2.58457794300193,1.5418659448623657,-4.0533833503723145,8.75080680847168,1.7697323560714722,-3.920118808746338,8.81312084197998,0.05742133408784866,-0.06352998316287994,-0.00366519158706069,0.10713600367307663,-0.1923770010471344,0.9639580249786377,Hello
2,2.93400080408901e-06,1.6496049165725708,-2.559401512145996,9.313444137573242,1.7744717597961426,-2.5501086711883545,9.301536560058594,0.006108652334660292,0.0012217304902151227,0.00366519158706069,0.06829199939966202,-0.1413709968328476,0.9789890050888062,Hello
2,0.0455029570002807,1.5945383310317993,-2.6001031398773193,9.366117477416992,1.7733346223831177,-2.54964280128479,9.301880836486816,0.004886921960860491,-0.0012217304902151227,0.00366519158706069,0.06829199939966202,-0.1413709968328476,0.9789890050888062,Hello
2,0.048249872001179,1.6376339197158813,-2.4684219360351562,9.406818389892578,1.7728639841079712,-2.5481579303741455,9.302377700805664,0.015882495790719986,-0.0012217304902151227,0.00366519158706069,0.06805600225925446,-0.14099900424480438,0.9790650010108948,Hello
2,0.0955300460009312,1.6879122257232666,-2.499546527862549,9.478644371032715,1.7749559879302979,-2.541395902633667,9.303828239440918,0.02932153269648552,0.0012217304902151227,0.004886921960860491,0.06805600225925446,-0.14099900424480438,0.9790650010108948,Hello
2,0.0984100109999417,1.6879122257232666,-2.499546527862549,9.478644371032715,1.7749559879302979,-2.541395902633667,9.303828239440918,0.02932153269648552,0.0012217304902151227,0.004886921960860491,0.06805600225925446,-0.14099900424480438,0.9790650010108948,Hello
2,0.0992403710006329,1.6376339197158813,-2.583343744277954,9.3828763961792,1.7762056589126587,-2.55009126663208,9.301210403442383,0.010995574295520782,0.0024434609804302454,0.00855211354792118,0.06829199939966202,-0.1413709968328476,0.9789890050888062,Hello
2,0.0997770430003584,1.6304513216018677,-2.5546131134033203,9.41400146484375,1.7752848863601685,-2.537513017654419,9.304825782775879,0.00733038317412138,-0.0024434609804302454,0.00733038317412138,0.06805600225925446,-0.14099900424480438,0.9790650010108948,Hello
2,0.100503826000931,1.5298948287963867,-2.604891538619995,9.428366661071777,1.7736308574676514,-2.539907217025757,9.304488182067871,-0.00733038317412138,-0.00366519158706069,0.004886921960860491,0.06805600225925446,-0.14099900424480438,0.9790650010108948,Hello
2,0.144461023999611,1.6400281190872192,-2.492363929748535,9.411606788635254,1.7743268013000488,-2.539440870285034,9.304482460021973,0.00733038317412138,-0.00366519158706069,0.0024434609804302454,0.06805600225925446,-0.14099900424480438,0.9790650010108948,Hello
2,0.194681577002484,1.7357962131500244,-2.456450939178467,9.44991397857666,1.7745722532272339,-2.5380191802978516,9.304823875427246,-0.00366519158706069,-0.0024434609804302454,-0.0012217304902151227,0.0681610032916069,-0.14052100479602814,0.9791300296783447,Hello
2,0.195618378002109,1.7405846118927002,-2.492363929748535,9.433155059814453,1.7776893377304077,-2.539029836654663,9.30395221710205,-0.00855211354792118,-0.004886921960860491,0.0012217304902151227,0.0681610032916069,-0.14052100479602814,0.9791300296783447,Hello
2,0.196319878003123,1.5705963373184204,-2.5546131134033203,9.373299598693848,1.7772382497787476,-2.5423789024353027,9.30312442779541,-0.01710422709584236,-0.00733038317412138,0.0012217304902151227,0.0681610032916069,-0.14052100479602814,0.9791300296783447,Hello
2,0.241793222001434,1.5921441316604614,-2.5498247146606445,9.366117477416992,1.775434970855713,-2.5448615550994873,9.302789688110352,-0.021991148591041565,-0.010995574295520782,-0.00366519158706069,0.0681610032916069,-0.14052100479602814,0.9791300296783447,Hello
2,0.244079943000543,1.6615760326385498,-2.6671407222747803,9.418789863586426,1.7796144485473633,-2.5510473251342773,9.300296783447266,-0.010995574295520782,-0.00733038317412138,-0.00855211354792118,0.0681610032916069,-0.14052100479602814,0.9791300296783447,Hello
2,0.244987968002533,1.6879122257232666,-2.5474305152893066,9.39245319366455,1.7824621200561523,-2.5517256259918213,9.299565315246582,-0.010995574295520782,-0.0024434609804302454,-0.00855211354792118,0.06840900331735611,-0.1411229968070984,0.9790149927139282,Hello
2,0.290393634000793,1.7046716213226318,-2.6408045291900635,9.411606788635254,1.7830181121826172,-2.5548782348632812,9.298593521118164,-0.02076941914856434,-0.00733038317412138,-0.006108652334660292,0.06840900331735611,-0.1411229968070984,0.9790149927139282,Hello
2,0.291023544999916,1.6280571222305298,-2.628833532333374,9.370905876159668,1.7843036651611328,-2.559593677520752,9.297049522399902,-0.01710422709584236,-0.0024434609804302454,-0.010995574295520782,0.06840900331735611,-0.1411229968070984,0.9790149927139282,Hello
2,0.339375806001044,1.6663644313812256,-2.585737943649292,9.44752025604248,1.7859327793121338,-2.5627362728118896,9.295870780944824,-0.006108652334660292,0.00366519158706069,-0.010995574295520782,0.06840900331735611,-0.1411229968070984,0.9790149927139282,Hello
2,0.340083871000388,1.6519991159439087,-2.6647465229034424,9.387664794921875,1.7851699590682983,-2.5639395713806152,9.295685768127441,0.0024434609804302454,0.0024434609804302454,-0.009773843921720982,0.06840900331735611,-0.1411229968070984,0.9790149927139282,Hello
2,0.387545218000014,1.764526605606079,-2.561795711517334,9.425971984863281,1.786956548690796,-2.5628652572631836,9.295638084411621,0.0012217304902151227,0.0,-0.00855211354792118,0.06854099780321121,-0.14160799980163574,0.9789450168609619,Hello
2,0.388885151001887,1.7142484188079834,-2.499546527862549,9.390059471130371,1.7880077362060547,-2.562636375427246,9.295499801635742,-0.004886921960860491,-0.0024434609804302454,-0.006108652334660292,0.06854099780321121,-0.14160799980163574,0.9789450168609619,Hello
2,0.389444800999627,1.6687586307525635,-2.6144683361053467,9.406818389892578,1.7874951362609863,-2.5630457401275635,9.295485496520996,-0.00366519158706069,-0.0024434609804302454,-0.006108652334660292,0.06854099780321121,-0.14160799980163574,0.9789450168609619,Hello
2,0.436468862000766,1.7166426181793213,-2.564189910888672,9.378087997436523,1.7906928062438965,-2.5650672912597656,9.294312477111816,-0.00733038317412138,-0.00366519158706069,-0.0012217304902151227,0.06854099780321121,-0.14160799980163574,0.9789450168609619,Hello
2,0.437978303001728,1.702277421951294,-2.5689783096313477,9.368511199951172,1.791147232055664,-2.5655078887939453,9.294102668762207,0.004886921960860491,-0.00366519158706069,-0.00366519158706069,0.06854099780321121,-0.14160799980163574,0.9789450168609619,Hello
2,0.486912983000366,1.6208745241165161,-2.580949544906616,9.38048267364502,1.7904391288757324,-2.564805507659912,9.294432640075684,0.012217304669320583,-0.0012217304902151227,-0.00366519158706069,0.06864900141954422,-0.14167800545692444,0.9789249897003174,Hello
2,0.487556513002346,1.556231141090393,-2.5043349266052246,9.363722801208496,1.7867043018341064,-2.5631296634674072,9.295614242553711,-0.004886921960860491,-0.0012217304902151227,-0.00733038317412138,0.06864900141954422,-0.14167800545692444,0.9789249897003174,Hello
2,0.488194457000645,1.6711528301239014,-2.557007312774658,9.32302188873291,1.787350058555603,-2.5651183128356934,9.294941902160645,-0.009773843921720982,-0.00366519158706069,-0.009773843921720982,0.06864900141954422,-0.14167800545692444,0.9789249897003174,Hello
2,0.534422311000526,1.742978811264038,-2.5306711196899414,9.375694274902344,1.788246512413025,-2.564713478088379,9.294880867004395,-0.009773843921720982,-0.00855211354792118,-0.009773843921720982,0.06864900141954422,-0.14167800545692444,0.9789249897003174,Hello
2,0.534987898001418,1.6376339197158813,-2.585737943649292,9.373299598693848,1.7903026342391968,-2.566765308380127,9.293917655944824,0.0012217304902151227,-0.00733038317412138,-0.00366519158706069,0.06864900141954422,-0.14167800545692444,0.9789249897003174,Hello
2,0.583439964000718,1.644816517829895,-2.5522189140319824,9.404424667358398,1.7904980182647705,-2.565365791320801,9.294266700744629,0.0,-0.00366519158706069,-0.0012217304902151227,0.06885100156068802,-0.14175499975681305,0.9788979887962341,Hello
2,0.584275981000246,1.721431016921997,-2.736572504043579,9.339780807495117,1.7918747663497925,-2.5691397190093994,9.292959213256836,-0.024434609338641167,-0.0012217304902151227,-0.006108652334660292,0.06885100156068802,-0.14175499975681305,0.9788979887962341,Hello
2,0.586124229001143,1.7262194156646729,-2.5019407272338867,9.363722801208496,1.795331358909607,-2.5722317695617676,9.291437149047852,-0.00366519158706069,0.013439035043120384,-0.025656340643763542,0.06885100156068802,-0.14175499975681305,0.9788979887962341,Hello
2,0.631744941001671,1.5753847360610962,-2.274491548538208,9.749189376831055,1.7925752401351929,-2.567375421524048,9.293312072753906,-0.024434609338641167,0.042760565876960754,-0.051312681287527084,0.06885100156068802,-0.14175499975681305,0.9788979887962341,Hello
2,0.633208983999793,1.3455413579940796,-1.5155296325683594,10.055646896362305,1.7858532667160034,-2.5653700828552246,9.295159339904785,-0.1966986060142517,0.06475171446800232,-0.05619960278272629,0.06885100156068802,-0.14175499975681305,0.9788979887962341,Hello
2,0.680889218001539,1.9129672050476074,-1.292868971824646,9.95748519897461,1.7816660404205322,-2.601330280303955,9.285964012145996,-0.6157521605491638,0.04886921867728233,-0.05253441259264946,0.06746800243854523,-0.14075200259685516,0.9789170026779175,Hello
2,0.682132068999636,1.745373010635376,-2.169146776199341,9.952696800231934,1.7813383340835571,-2.7854936122894287,9.23245620727539,-1.0934487581253052,0.02687807008624077,-0.05864306539297104,0.06746800243854523,-0.14075200259685516,0.9789170026779175,Hello
2,0.729508068001451,1.4676456451416016,-2.719813108444214,9.763554573059082,1.7803964614868164,-2.934546709060669,9.186349868774414,-1.273043155670166,-0.0012217304902151227,-0.09407325088977814,0.06746800243854523,-0.14075200259685516,0.9789170026779175,Hello
2,0.730119053001545,1.2952631711959839,-3.8762125968933105,10.613495826721191,1.794505000114441,-3.222229480743408,9.08665943145752,-1.187522053718567,-0.059864792972803116,-0.15882496535778046,0.06746800243854523,-0.14075200259685516,0.9789170026779175,Hello
2,0.731952633999754,1.216254472732544,-4.122815132141113,11.745953559875488,1.8388324975967407,-3.4513323307037354,8.993185997009277,-1.441641926765442,-0.2223549485206604,-0.33475416898727417,0.06746800243854523,-0.14075200259685516,0.9789170026779175,Hello
2,0.77737960200102,0.7781155705451965,-5.652710437774658,12.428300857543945,1.898064374923706,-3.6388349533081055,8.906549453735352,-1.6908750534057617,-0.5925393104553223,-0.43249258399009705,0.061834000051021576,-0.1885869950056076,0.9699109792709351,Hello
2,0.779031173002295,2.070984363555908,-7.395689010620117,12.20803451538086,2.1346521377563477,-3.980510950088501,8.704549789428711,-1.4404202699661255,-1.0482447147369385,-0.7098253965377808,0.061834000051021576,-0.1885869950056076,0.9699109792709351,Hello
2,0.782385927999712,2.808398485183716,-7.955932140350342,10.292673110961914,2.4253787994384766,-4.183555603027344,8.531458854675293,-1.2864822149276733,-1.2754865884780884,-0.9944885969161987,0.061834000051021576,-0.1885869950056076,0.9699109792709351,Hello
2,0.8263536020022,3.043030261993408,-8.564059257507324,10.8720703125,2.7391738891601562,-4.301227569580078,8.376559257507324,-0.8026769161224365,-1.4440854787826538,-1.0250319242477417,0.061834000051021576,-0.1885869950056076,0.9699109792709351,Hello
2,0.828060628002277,3.318363666534424,-8.33182144165039,11.549629211425781,3.096393585205078,-4.354455471038818,8.223227500915527,-0.6609562039375305,-1.6114624738693237,-1.2767083644866943,0.061834000051021576,-0.1885869950056076,0.9699109792709351,Hello
2,0.875381731002562,3.998316764831543,-7.1706342697143555,11.075576782226562,3.5077900886535645,-4.364019870758057,8.05115795135498,-0.6352998614311218,-1.7617353200912476,-1.5222761631011963,0.061834000051021576,-0.1885869950056076,0.9699109792709351,Hello
2,0.877013117002207,3.974374771118164,-7.082048416137695,9.81143856048584,3.962766408920288,-4.340762615203857,7.850137233734131,-0.6951646208763123,-1.9168951511383057,-1.9804251194000244,0.11765599995851517,-0.25362199544906616,0.9443539977073669,Hello
2,0.877655601001607,4.577713489532471,-7.759607791900635,8.9064302444458,4.463717937469482,-4.2739338874816895,7.614400863647461,-0.6279694437980652,-2.101376533508301,-2.1991147994995117,0.11765599995851517,-0.25362199544906616,0.9443539977073669,Hello
2,0.924494858001708,4.7189717292785645,-6.174646377563477,8.719682693481445,4.816908359527588,-4.185113430023193,7.446650981903076,-0.1661553531885147,-2.2149972915649414,-2.487443208694458,0.11765599995851517,-0.25362199544906616,0.9443539977073669,Hello
2,0.925029015001201,4.469974517822266,-4.383783340454102,8.056488990783691,5.497710227966309,-3.8353590965270996,7.157903671264648,0.32986724376678467,-2.20278000831604,-2.6988027095794678,0.11765599995851517,-0.25362199544906616,0.9443539977073669,Hello
2,0.972420799000247,4.67827033996582,-4.845864295959473,6.866570472717285,5.989349842071533,-3.509951114654541,6.926637649536133,0.12828169763088226,-2.3066272735595703,-2.8600711822509766,0.11765599995851517,-0.25362199544906616,0.9443539977073669,Hello
2,0.973968862999755,5.65031623840332,-4.9152960777282715,5.861005783081055,6.495833396911621,-3.187730550765991,6.619132041931152,-0.17104226350784302,-2.361604928970337,-3.032335042953491,0.23010699450969696,-0.2640640139579773,0.9022219777107239,Hello
2,1.02193419499963,5.245696067810059,-2.5737667083740234,4.836287498474121,6.980178356170654,-2.767146587371826,6.3079633712768555,0.16493362188339233,-2.141693592071533,-3.1557297706604004,0.23010699450969696,-0.2640640139579773,0.9022219777107239,Hello
2,1.02314044900049,4.908113479614258,-1.3096283674240112,4.575319290161133,7.387646675109863,-2.2874085903167725,6.029994487762451,0.3127630054950714,-1.9620991945266724,-3.1532864570617676,0.23010699450969696,-0.2640640139579773,0.9022219777107239,Hello
2,1.02382881900121,5.590460777282715,-0.7374141216278076,3.689464807510376,7.743391990661621,-1.7906992435455322,5.744882106781006,0.1771509200334549,-1.8851301670074463,-3.078760862350464,0.23010699450969696,-0.2640640139579773,0.9022219777107239,Hello
2,1.07087963000231,5.731719017028809,-0.35913026332855225,3.3255462646484375,8.040877342224121,-1.2950912714004517,5.462364673614502,0.16249015927314758,-1.6994271278381348,-2.981022357940674,0.23010699450969696,-0.2640640139579773,0.9022219777107239,Hello
2,1.07146149000255,5.566518783569336,0.5841852426528931,3.222595453262329,8.271634101867676,-0.8043652772903442,5.206099033355713,0.23945917189121246,-1.4575244188308716,-2.811201810836792,0.3625209927558899,-0.24428699910640717,0.8258730173110962,Hello
2,1.12063747600041,5.856217384338379,0.9097966551780701,2.896984100341797,8.444580078125,-0.32417115569114685,4.975378036499023,0.13561208546161652,-1.2559388875961304,-2.6230554580688477,0.3625209927558899,-0.24428699910640717,0.8258730173110962,Hello
2,1.12136181400274,6.469132900238037,1.237802267074585,2.607285737991333,8.564520835876465,0.09180910140275955,4.776081085205078,-0.13927727937698364,-1.0812314748764038,-2.406809091567993,0.3625209927558899,-0.24428699910640717,0.8258730173110962,Hello
2,1.12298887100042,6.813898086547852,1.8291701078414917,2.4205379486083984,8.645591735839844,0.4661576747894287,4.605086803436279,-0.2675589919090271,-0.8552113175392151,-2.1905627250671387,0.3625209927558899,-0.24428699910640717,0.8258730173110962,Hello
2,1.16838175500016,6.801927089691162,1.5897499322891235,2.5091233253479004,8.687911033630371,0.7960069179534912,4.478499889373779,-0.35063666105270386,-0.6010913848876953,-1.966986060142517,0.3625209927558899,-0.24428699910640717,0.8258730173110962,Hello
2,1.16910560500037,7.0341644287109375,1.7334020137786865,2.6623523235321045,8.697919845581055,1.0849480628967285,4.397667407989502,-0.32620203495025635,-0.35674530267715454,-1.7434093952178955,0.43649500608444214,-0.2238280028104782,0.7420679926872253,Hello
2,1.21654362499976,7.33583402633667,2.5522189140319824,3.141192674636841,8.682439804077148,1.3571370840072632,4.3524489402771,-0.04642575979232788,-0.15271630883216858,-1.5015068054199219,0.43649500608444214,-0.2238280028104782,0.7420679926872253,Hello
2,1.21828089300107,7.496245384216309,3.160346269607544,3.84269380569458,8.661009788513184,1.5412980318069458,4.333784580230713,0.009773843921720982,-0.028099801391363144,-1.2718214988708496,0.43649500608444214,-0.2238280028104782,0.7420679926872253,Hello
2,1.21890759100279,7.462726593017578,2.827552318572998,3.9480385780334473,8.612028121948242,1.7982754707336426,4.332386493682861,-0.3274237811565399,0.025656340643763542,-0.9969320893287659,0.43649500608444214,-0.2238280028104782,0.7420679926872253,Hello
2,1.26640001800115,7.888894557952881,2.542642116546631,3.9695863723754883,8.578423500061035,1.9148931503295898,4.349049091339111,-0.4544837474822998,0.04764748737215996,-0.7538077235221863,0.43649500608444214,-0.2238280028104782,0.7420679926872253,Hello
2,1.31468062000204,8.020575523376465,2.6240451335906982,4.537012100219727,8.546086311340332,2.0115010738372803,4.369057655334473,-0.3066543638706207,0.05864306539297104,-0.5864306092262268,0.4537389874458313,-0.20363999903202057,0.7004770040512085,Hello
2,1.31540963900261,8.097189903259277,2.3056161403656006,4.8267107009887695,8.513513565063477,2.0821940898895264,4.3994269371032715,-0.23090706765651703,0.08918632566928864,-0.43737950921058655,0.4537389874458313,-0.20363999903202057,0.7004770040512085,Hello
2,1.31700121500035,8.109161376953125,2.985569477081299,5.530605792999268,8.489681243896484,2.122145414352417,4.426309108734131,-0.2871066629886627,0.05375614017248154,-0.3579670190811157,0.4537389874458313,-0.20363999903202057,0.7004770040512085,Hello
2,1.36244592300136,8.22887134552002,3.3949780464172363,5.705382823944092,8.469480514526367,2.1533753871917725,4.449863910675049,-0.5522221922874451,-0.08552113175392151,-0.19792033731937408,0.4537389874458313,-0.20363999903202057,0.7004770040512085,Hello
2,1.36408059200039,8.56884765625,1.556231141090393,4.7405195236206055,8.476289749145508,2.1131489276885986,4.456175804138184,-0.8124507665634155,-0.28588494658470154,-0.045204028487205505,0.4537389874458313,-0.20363999903202057,0.7004770040512085,Hello
2,1.36471783700108,8.899248123168945,1.5418659448623657,4.3622355461120605,8.510704040527344,2.0243401527404785,4.431746006011963,-0.35552358627319336,-0.28099802136421204,-0.013439035043120384,0.44734901189804077,-0.20672599971294403,0.6855549812316895,Hello
2,1.41161310800089,8.801085472106934,3.337517261505127,4.67827033996582,8.537920951843262,2.02665376663208,4.378008842468262,0.16859880089759827,-0.1661553531885147,-0.018325956538319588,0.44734901189804077,-0.20672599971294403,0.6855549812316895,Hello
2,1.41314350200264,8.942343711853027,3.6535518169403076,4.41969633102417,8.5499267578125,2.050654172897339,4.3432698249816895,0.07208210229873657,-0.09773843735456467,0.07696902006864548,0.44734901189804077,-0.20672599971294403,0.6855549812316895,Hello
2,1.46256763900237,9.002198219299316,2.2625205516815186,4.02465295791626,8.565271377563477,2.019239664077759,4.327723979949951,-0.4544837474822998,-0.0757472887635231,0.12950342893600464,0.44734901189804077,-0.20672599971294403,0.6855549812316895,Hello
2,1.46351484600018,9.165003776550293,0.45250412821769714,4.812345504760742,8.5833101272583,1.9201099872589111,4.337092399597168,-0.5302310585975647,-0.04642575979232788,0.09896016865968704,0.44734901189804077,-0.20672599971294403,0.6855549812316895,Hello
2,1.46407931500289,9.14585018157959,1.3623007535934448,5.365406036376953,8.587987899780273,1.8719459772109985,4.348872661590576,-0.05009094998240471,0.030543262138962746,-0.0024434609804302454,0.4454079866409302,-0.22179999947547913,0.6796169877052307,Hello
2,1.50952353400135,8.904036521911621,2.0254945755004883,5.240907669067383,8.58493423461914,1.8742104768753052,4.3539204597473145,0.13439035415649414,0.02321287989616394,-0.015882495790719986,0.4454079866409302,-0.22179999947547913,0.6796169877052307,Hello
2,1.5101168479996,8.78193187713623,2.274491548538208,4.6734819412231445,8.584444999694824,1.8855209350585938,4.350001811981201,-0.07696902006864548,-0.02076941914856434,0.00733038317412138,0.4454079866409302,-0.22179999947547913,0.6796169877052307,Hello
2,1.55846750199999,8.738836288452148,1.7956513166427612,4.69024133682251,8.590738296508789,1.8609789609909058,4.348143100738525,-0.1722639948129654,-0.03787364438176155,0.01710422709584236,0.4454079866409302,-0.22179999947547913,0.6796169877052307,Hello
2,1.55908407400057,8.573636054992676,2.846705913543701,5.049371242523193,8.593659400939941,1.854143500328064,4.345292091369629,0.04153883829712868,-0.00855211354792118,0.07330382615327835,0.4454079866409302,-0.22179999947547913,0.6796169877052307,Hello
2,1.55990346900217,8.365341186523438,3.002328872680664,4.922478675842285,8.589740753173828,1.870539665222168,4.346014022827148,0.294437050819397,0.02321287989616394,0.2125810980796814,0.43680500984191895,-0.23332500457763672,0.6700500249862671,Hello
2,1.60655303400199,8.597578048706055,2.8227639198303223,4.019864559173584,8.6018648147583,1.8772844076156616,4.319040298461914,0.5106833577156067,0.00366519158706069,0.39217549562454224,0.43680500984191895,-0.23332500457763672,0.6700500249862671,Hello
2,1.60811087600086,8.674192428588867,3.9695863723754883,3.5027170181274414,8.62079906463623,1.8958202600479126,4.272946834564209,0.911410927772522,0.06230825558304787,0.6414085030555725,0.43680500984191895,-0.23332500457763672,0.6700500249862671,Hello
2,1.65572957800032,8.731653213500977,8.17141056060791,3.450044631958008,8.638589859008789,1.8662983179092407,4.24995231628418,1.490511178970337,0.3127630054950714,1.1496484279632568,0.43680500984191895,-0.23332500457763672,0.6700500249862671,Hello
2,1.65713376600252,7.752425193786621,8.947132110595703,3.7253777980804443,8.654151916503906,1.755458950996399,4.265491485595703,1.5454890727996826,0.5839871764183044,1.8154915571212769,0.43680500984191895,-0.23332500457763672,0.6700500249862671,Hello
2,1.70487713799957,7.615955829620361,6.414066314697266,3.6104562282562256,8.664990425109863,1.5225728750228882,4.332449913024902,0.475253164768219,0.6731734871864319,2.331061840057373,0.45481300354003906,-0.20354600250720978,0.6898490190505981,Hello
2,1.70555398400029,7.881711959838867,3.8498764038085938,4.1180267333984375,8.669364929199219,1.1711907386779785,4.431798458099365,0.33597588539123535,0.7819074988365173,2.8845057487487793,0.45481300354003906,-0.20354600250720978,0.6898490190505981,Hello
2,1.70693337800185,6.63433313369751,1.6879122257232666,4.106055736541748,8.64415168762207,0.7089741826057434,4.576724529266357,0.5925393104553223,1.0299187898635864,3.1141910552978516,0.45481300354003906,-0.20354600250720978,0.6898490190505981,Hello
2,1.75255946700054,6.689399719238281,-0.3519476354122162,4.955997467041016,8.599169731140137,0.3593018054962158,4.700592517852783,0.5607742667198181,1.0971139669418335,3.17161226272583,0.45481300354003906,-0.20354600250720978,0.6898490190505981,Hello
2,1.75478151400239,7.347805023193359,-0.40940847992897034,6.433219909667969,8.443944931030273,-0.2765045762062073,4.979328632354736,0.6976081132888794,1.2046263217926025,3.0921998023986816,0.45481300354003906,-0.20354600250720978,0.6898490190505981,Hello
2,1.80142199900001,4.462791919708252,-6.485892295837402,6.873753070831299,8.241793632507324,-0.8567121028900146,5.244927406311035,0.4031710624694824,1.2009611129760742,3.0274481773376465,0.415708988904953,-0.20980599522590637,0.7785189747810364,Hello
2,1.80293912300112,4.458003520965576,-10.398017883300781,7.33583402633667,8.065900802612305,-1.3358906507492065,5.415443420410156,-0.05497787147760391,0.7550294399261475,2.263866662979126,0.415708988904953,-0.20980599522590637,0.7785189747810364,Hello
2,1.8034943720013,5.971138954162598,-9.253589630126953,7.771578788757324,7.919259548187256,-1.6898647546768188,5.531734466552734,0.26633724570274353,0.656069278717041,1.9022343158721924,0.415708988904953,-0.20980599522590637,0.7785189747810364,Hello
2,1.85060489900206,6.200982570648193,-8.066065788269043,6.878541469573975,7.801802635192871,-1.9075313806533813,5.627040386199951,0.3139847218990326,0.4043927788734436,1.1398745775222778,0.415708988904953,-0.20980599522590637,0.7785189747810364,Hello
2,1.85196941700269,6.926425457000732,-5.530605792999268,6.124367713928223,7.741349220275879,-2.026000499725342,5.668970584869385,0.17470745742321014,0.14049901068210602,0.5876523852348328,0.415708988904953,-0.20980599522590637,0.7785189747810364,Hello
2,1.90019777600173,7.422025203704834,-3.4548330307006836,5.5976433753967285,7.697089195251465,-2.123825788497925,5.693378925323486,0.28955012559890747,0.00733038317412138,0.26022860407829285,0.3690890073776245,-0.2268189936876297,0.8327869772911072,Hello
2,1.90103819400247,7.5417351722717285,-2.3271639347076416,5.219359874725342,7.690928936004639,-2.1416399478912354,5.69503116607666,0.07452555745840073,-0.05864306539297104,0.11484266817569733,0.3690890073776245,-0.2268189936876297,0.8327869772911072,Hello
2,1.9474068510026,7.350199222564697,-1.9776105880737305,4.982333660125732,7.697352409362793,-2.161283493041992,5.6789093017578125,-0.14294247329235077,-0.045204028487205505,0.08552113175392151,0.3690890073776245,-0.2268189936876297,0.8327869772911072,Hello
2,1.94896853500177,7.242460250854492,-1.50355863571167,5.382165431976318,7.700170993804932,-2.1868276596069336,5.665292739868164,-0.05619960278272629,0.06230825558304787,0.06475171446800232,0.3690890073776245,-0.2268189936876297,0.8327869772911072,Hello
2,1.94973086800019,6.897695064544678,-1.2665326595306396,5.614402770996094,7.682130336761475,-2.2024245262145996,5.683713436126709,-0.02687807008624077,0.1820378452539444,0.08185594528913498,0.3690890073776245,-0.2268189936876297,0.8327869772911072,Hello
2,2.04572271399957,6.4595561027526855,-1.3503297567367554,5.583278179168701,7.652634143829346,-2.2279882431030273,5.713461399078369,-0.14538592100143433,0.26511552929878235,0.13927727937698364,0.3717750012874603,-0.2225400060415268,0.8343139886856079,Hello
2,2.04642239900204,6.186617374420166,-1.4317326545715332,5.52821159362793,7.61032772064209,-2.282560348510742,5.748323917388916,-0.2932153046131134,0.32620203495025635,0.21502456068992615,0.3717750012874603,-0.2225400060415268,0.8343139886856079,Hello
2,2.04804952500126,6.287173748016357,-1.601720929145813,5.145139217376709,7.559440612792969,-2.3706936836242676,5.779710292816162,-0.48380526900291443,0.36651915311813354,0.3237585723400116,0.3717750012874603,-0.2225400060415268,0.8343139886856079,Hello
2,2.05010674200094,5.983109951019287,-2.006340980529785,5.116408824920654,7.493232250213623,-2.499511241912842,5.811566352844238,-0.6243042945861816,0.4593706727027893,0.46792277693748474,0.3717750012874603,-0.2225400060415268,0.8343139886856079,Hello
2,2.05067938300272,5.837063789367676,-2.233790159225464,5.037400245666504,7.4024577140808105,-2.6648316383361816,5.854287624359131,-0.7134906053543091,0.608421802520752,0.6096435189247131,0.3717750012874603,-0.2225400060415268,0.8343139886856079,Hello
2,2.09477682400029,6.320692539215088,-2.851494312286377,4.486733913421631,7.286190986633301,-2.847215414047241,5.913980484008789,-0.6157521605491638,0.7525860071182251,0.7073819637298584,0.3446959853172302,-0.239437997341156,0.8419139981269836,Hello
2,2.09527661900211,6.48828649520874,-3.0310592651367188,4.920084476470947,7.132810115814209,-3.017894983291626,6.015456199645996,-0.24190263450145721,1.027475357055664,0.8185594081878662,0.3446959853172302,-0.239437997341156,0.8419139981269836,Hello
2,2.1436841950017,6.038176536560059,-3.3231520652770996,5.4444146156311035,6.933900356292725,-3.1432509422302246,6.181535720825195,0.17104226350784302,1.3829989433288574,0.8723155856132507,0.3446959853172302,-0.239437997341156,0.8419139981269836,Hello
2,2.14434029800032,5.999869346618652,-3.1100680828094482,6.074089527130127,6.6832122802734375,-3.225060224533081,6.411243915557861,0.5204572081565857,1.5919147729873657,0.940732479095459,0.3446959853172302,-0.239437997341156,0.8419139981269836,Hello
2,2.19252312000026,6.5050458908081055,-2.4660277366638184,5.9735331535339355,6.412006855010986,-3.276956081390381,6.6571855545043945,0.5571091175079346,1.665218710899353,1.0128145217895508,0.3446959853172302,-0.239437997341156,0.8419139981269836,Hello
2,2.19306076900102,6.596025466918945,-1.0606313943862915,5.219359874725342,6.213239669799805,-3.309201240539551,6.827534198760986,0.5436700582504272,1.794722080230713,1.1704177856445312,0.2803789973258972,-0.2315409928560257,0.8757699728012085,Hello
2,2.19417916100065,5.178658485412598,-1.2473790645599365,6.773196697235107,5.7620038986206055,-3.383124828338623,7.178033351898193,0.7733554244041443,1.9938641786575317,1.3732250928878784,0.2803789973258972,-0.2315409928560257,0.8757699728012085,Hello
2,2.2403813130004,5.013458251953125,-2.3989901542663574,7.7213006019592285,5.377945899963379,-3.4063878059387207,7.459531784057617,0.789237916469574,1.9950858354568481,1.3915510177612305,0.2803789973258972,-0.2315409928560257,0.8757699728012085,Hello
2,2.24108728300052,5.659893035888672,-2.0829553604125977,8.001421928405762,5.123163223266602,-3.399129867553711,7.639994144439697,0.7086036801338196,1.9120081663131714,1.4184291362762451,0.2803789973258972,-0.2315409928560257,0.8757699728012085,Hello
2,2.28972156900272,4.975151062011719,-1.556231141090393,8.892065048217773,4.743238925933838,-3.381817579269409,7.888940811157227,0.950506329536438,2.031737804412842,1.539380431175232,0.2803789973258972,-0.2315409928560257,0.8757699728012085,Hello
2,2.29022101400187,3.3949780464172363,-2.6192567348480225,10.295066833496094,4.176764011383057,-3.3425514698028564,8.219025611877441,1.0213667154312134,2.0305161476135254,1.5552629232406616,0.19128699600696564,-0.18545299768447876,0.9258469939231873,Hello
2,2.29226866300087,3.0597896575927734,-4.558559894561768,11.307814598083496,3.8724498748779297,-3.3253257274627686,8.373573303222656,0.6572909951210022,1.7702875137329102,1.4721852540969849,0.19128699600696564,-0.18545299768447876,0.9258469939231873,Hello
2,2.3375129920023,3.157952070236206,-4.120420932769775,11.456254959106445,3.4900054931640625,-3.339064121246338,8.534687995910645,0.4447098970413208,1.4721852540969849,1.3634512424468994,0.19128699600696564,-0.18545299768447876,0.9258469939231873,Hello
2,2.33919487500316,2.4827871322631836,-3.0310592651367188,10.54406452178955,3.0545191764831543,-3.3370916843414307,8.700812339782715,0.6108652353286743,1.320690631866455,1.3353514671325684,0.19128699600696564,-0.18545299768447876,0.9258469939231873,Hello
2,2.38661606200185,2.008735179901123,-4.039018154144287,9.75637149810791,2.7418980598449707,-3.3167645931243896,8.812006950378418,0.5021312236785889,1.166752576828003,1.2596040964126587,0.19128699600696564,-0.18545299768447876,0.9258469939231873,Hello
2,2.38905874200282,1.6735470294952393,-4.999093055725098,10.201693534851074,2.462334394454956,-3.3345940113067627,8.887507438659668,0.1771509200334549,1.0213667154312134,1.1239920854568481,0.11373700201511383,-0.14629800617694855,0.957427978515625,Hello
2,2.38972350500262,1.314416766166687,-3.529053211212158,11.530475616455078,2.210479736328125,-3.3517005443573,8.94708251953125,0.2370157092809677,0.960280179977417,0.979827880859375,0.11373700201511383,-0.14629800617694855,0.957427978515625,Hello
2,2.43647853200309,1.525106430053711,-4.151545524597168,12.703634262084961,2.0523805618286133,-3.3470780849456787,8.98638916015625,0.1612684279680252,0.7965682744979858,0.8625417351722717,0.11373700201511383,-0.14629800617694855,0.957427978515625,Hello
2,2.43730609900013,-0.730231523513794,-12.373234748840332,24.85660171508789,1.8331236839294434,-3.4100615978240967,9.010079383850098,-0.475253164768219,0.22602014243602753,1.1288789510726929,0.11373700201511383,-0.14629800617694855,0.957427978515625,Hello
2,2.4854215230007,3.6774938106536865,-3.998316764831543,2.698265314102173,1.8551703691482544,-3.670353889465332,8.902652740478516,-1.6004669666290283,-0.5265658497810364,-0.07819075137376785,0.11373700201511383,-0.14629800617694855,0.957427978515625,Hello
2,2.48622995299957,1.3766659498214722,-1.1037269830703735,10.699687004089355,1.887268304824829,-3.712632656097412,8.878342628479004,1.3439035415649414,0.04764748737215996,0.3090978264808655,0.08521799743175507,-0.16115599870681763,0.9660930037498474,Hello
2,2.48713707000206,0.8667010068893433,-2.959233283996582,9.457097053527832,1.8383327722549438,-3.485217332839966,8.980210304260254,0.3176499307155609,-0.08796459436416626,0.01466076634824276,0.08521799743175507,-0.16115599870681763,0.9660930037498474,Hello
2,2.53355049600214,2.3942017555236816,-5.16429328918457,8.078036308288574,1.8638638257980347,-3.5100817680358887,8.965250968933105,-0.22602014243602753,-0.08429940044879913,-0.0708603709936142,0.08521799743175507,-0.16115599870681763,0.9660930037498474,Hello
2,2.53412823500184,2.008735179901123,-3.5218706130981445,9.071630477905273,1.883916974067688,-3.5404839515686035,8.949090957641602,0.2565633952617645,0.21991148591041565,-0.10873401165008545,0.08521799743175507,-0.16115599870681763,0.9660930037498474,Hello
2,2.58151191700017,0.9840168952941895,-2.1571757793426514,10.010157585144043,1.8415707349777222,-3.463414430618286,8.9879789352417,0.38728857040405273,0.2321287989616394,-0.08796459436416626,0.08521799743175507,-0.16115599870681763,0.9660930037498474,Hello
2,2.58313212900248,1.4413094520568848,-2.185906171798706,9.473855972290039,1.807814121246338,-3.3598718643188477,9.034016609191895,0.22968533635139465,0.07208210229873657,-0.05009094998240471,0.09357599914073944,-0.1527239978313446,0.9667810201644897,Hello
2,2.5837728660008,1.338358759880066,-3.098097085952759,9.165003776550293,1.7965947389602661,-3.3132615089416504,9.053448677062988,-0.08918632566928864,-0.018325956538319588,-0.015882495790719986,0.09357599914073944,-0.1527239978313446,0.9667810201644897,Hello
2,2.63059103100022,1.4460978507995605,-3.3231520652770996,9.045293807983398,1.7915239334106445,-3.3387043476104736,9.045103073120117,-0.10384709388017654,-0.05742133408784866,-0.00366519158706069,0.09357599914073944,-0.1527239978313446,0.9667810201644897,Hello
3,3.77100150217302e-06,5.724536418914795,-4.359841346740723,7.137115478515625,5.166664123535156,-3.6132121086120605,7.511369228363037,-0.4996877610683441,-1.1349875926971436,-1.0836749076843262,0.1757809966802597,-0.23786300420761108,0.9277539849281311,Hello
3,0.0009923950019583,5.829881191253662,-3.8594532012939453,6.610390663146973,5.428711414337158,-3.5761938095092773,7.342364311218262,-0.3885102868080139,-1.0885618925094604,-1.1154398918151855,0.1757809966802597,-0.23786300420761108,0.9277539849281311,Hello
3,0.049508785999933,5.633556365966797,-2.0853497982025146,6.449979305267334,5.557657718658447,-3.5221798419952393,7.271662712097168,-0.02687807008624077,-0.93095862865448,-1.1264355182647705,0.1757809966802597,-0.23786300420761108,0.9277539849281311,Hello
3,0.0502717480012507,5.765237808227539,-2.4827871322631836,6.1315507888793945,5.832223892211914,-3.3562135696411133,7.133820533752441,0.009773843921720982,-0.8735373020172119,-1.037249207496643,0.1757809966802597,-0.23786300420761108,0.9277539849281311,Hello
3,0.0955144710023888,6.033388137817383,-3.2321722507476807,5.681440830230713,6.0269083976745605,-3.262171745300293,7.014627456665039,-0.2528982162475586,-0.846659243106842,-0.9334021210670471,0.21301700174808502,-0.2434619963169098,0.908420979976654,Hello
3,0.0965604360026191,4.5394062995910645,-3.292027235031128,8.078036308288574,4.912912368774414,-3.6590535640716553,7.6580023765563965,-0.32009339332580566,-1.0702359676361084,-1.0995573997497559,0.1757809966802597,-0.23786300420761108,0.9277539849281311,Hello
3,0.0969988380020368,6.033388137817383,-3.2321722507476807,5.681440830230713,6.0269083976745605,-3.262171745300293,7.014627456665039,-0.2528982162475586,-0.846659243106842,-0.9334021210670471,0.21301700174808502,-0.2434619963169098,0.908420979976654,Hello
3,0.100190372002544,5.944802761077881,-2.698265314102173,6.0621185302734375,6.197775363922119,-3.177036762237549,6.903942584991455,-0.039095375686883926,-0.6841690540313721,-0.8552113175392151,0.21301700174808502,-0.2434619963169098,0.908420979976654,Hello
3,0.101002224000695,5.810727596282959,-1.6639702320098877,6.110002517700195,6.3343048095703125,-3.0656824111938477,6.82997465133667,0.036651913076639175,-0.50335294008255,-0.7770205736160278,0.21301700174808502,-0.2434619963169098,0.908420979976654,Hello
3,0.143714754001849,5.896918773651123,-1.9273324012756348,5.940014362335205,6.443380832672119,-2.992004156112671,6.760262966156006,-0.28099802136421204,-0.43615779280662537,-0.656069278717041,0.21301700174808502,-0.2434619963169098,0.908420979976654,Hello
3,0.144243324000854,6.191405773162842,-2.58813214302063,5.6455278396606445,6.5356855392456055,-2.972461700439453,6.679797649383545,-0.48258355259895325,-0.3579670190811157,-0.5375614166259766,0.21301700174808502,-0.2434619963169098,0.908420979976654,Hello
3,0.192409453000437,6.210559368133545,-2.537853717803955,5.7125654220581055,6.6082353591918945,-2.964205503463745,6.6117401123046875,-0.3384193480014801,-0.2272418737411499,-0.4691445231437683,0.23855100572109222,-0.24956099689006805,0.8913570046424866,Hello
3,0.192986703001225,6.086060523986816,-2.118868589401245,5.949591159820557,6.655739784240723,-2.929964542388916,6.579273223876953,-0.009773843921720982,-0.09285151958465576,-0.36651915311813354,0.23855100572109222,-0.24956099689006805,0.8913570046424866,Hello
3,0.240366125002765,6.167463779449463,-1.8914192914962769,5.841852188110352,6.683999061584473,-2.8756730556488037,6.574577331542969,0.10262536257505417,-0.0012217304902151227,-0.27977627515792847,0.23855100572109222,-0.24956099689006805,0.8913570046424866,Hello
3,0.243120163002459,6.19379997253418,-1.6160861253738403,6.086060523986816,6.696254730224609,-2.8351340293884277,6.579710006713867,0.036651913076639175,0.05497787147760391,-0.15760323405265808,0.23855100572109222,-0.24956099689006805,0.8913570046424866,Hello
3,0.290799000002153,6.2416839599609375,-1.2473790645599365,5.87776517868042,6.697741985321045,-2.817355155944824,6.585829734802246,0.02687807008624077,0.11850785464048386,0.018325956538319588,0.23855100572109222,-0.24956099689006805,0.8913570046424866,Hello
3,0.291583682999772,6.337451934814453,-0.8810662031173706,5.60722017288208,6.669703483581543,-2.822575092315674,6.611998558044434,0.11239920556545258,0.2064724564552307,0.24923302233219147,0.24195800721645355,-0.24923400580883026,0.8862379789352417,Hello
3,0.292145079001784,5.985504150390625,-0.6272808313369751,5.635950565338135,6.6128692626953125,-2.8436264991760254,6.659891605377197,0.2773328125476837,0.3885102868080139,0.5094616413116455,0.24195800721645355,-0.24923400580883026,0.8862379789352417,Hello
3,0.338805889001378,5.832275390625,-0.021547814831137657,5.652710437774658,6.5167036056518555,-2.8792712688446045,6.738899230957031,0.36163222789764404,0.5229006409645081,0.7709119319915771,0.24195800721645355,-0.24923400580883026,0.8862379789352417,Hello
3,0.339435102003336,5.69580602645874,-0.3232172429561615,5.731719017028809,6.388070106506348,-2.9510891437530518,6.830374717712402,0.26511552929878235,0.6548475623130798,1.0873401165008545,0.24195800721645355,-0.24923400580883026,0.8862379789352417,Hello
3,0.387443527000869,5.442020416259766,-0.43335050344467163,5.578489780426025,6.216782093048096,-3.087911367416382,6.927251815795898,-0.010995574295520782,0.7929030656814575,1.3622294664382935,0.24195800721645355,-0.24923400580883026,0.8862379789352417,Hello
3,0.388104379002471,5.20978307723999,-0.8044517636299133,5.949591159820557,6.074878692626953,-3.2203128337860107,6.992554664611816,-0.251676470041275,0.9272934198379517,1.6273449659347534,0.2144390046596527,-0.24113400280475616,0.9051049947738647,Hello
3,0.38897762200213,4.9368438720703125,-2.099714994430542,6.797138690948486,5.743716716766357,-3.5327725410461426,7.12036657333374,-0.22479841113090515,1.0531316995620728,1.8790215253829956,0.2144390046596527,-0.24113400280475616,0.9051049947738647,Hello
3,0.435487013000966,4.891354084014893,-1.944091796875,6.485892295837402,5.53956413269043,-3.70052170753479,7.196509838104248,-0.14538592100143433,1.1264355182647705,2.0390682220458984,0.2144390046596527,-0.24113400280475616,0.9051049947738647,Hello
3,0.436861727001087,4.189853191375732,-3.0573954582214355,6.555324077606201,5.217059135437012,-3.942444086074829,7.308202266693115,-0.08307767659425735,1.1997393369674683,2.1795670986175537,0.2144390046596527,-0.24113400280475616,0.9051049947738647,Hello
3,0.533269138002652,3.2321722507476807,-5.264849662780762,7.333439826965332,4.721188068389893,-4.258366107940674,7.466397285461426,0.06841690838336945,1.253495454788208,2.207667112350464,0.2144390046596527,-0.24113400280475616,0.9051049947738647,Hello
3,0.533940256002097,2.4205379486083984,-5.322310447692871,7.73087739944458,4.290665149688721,-4.455860137939453,7.609591960906982,0.3188716471195221,1.340238332748413,2.129476308822632,0.13748100399971008,-0.2516840100288391,0.9366289973258972,Hello
3,0.535770834001596,1.4963760375976562,-7.228095054626465,8.643068313598633,3.8755836486816406,-4.580320835113525,7.756990909576416,0.4948008358478546,1.2681562900543213,1.9352210760116577,0.13748100399971008,-0.2516840100288391,0.9366289973258972,Hello
3,0.536461509000219,1.601720929145813,-8.674192428588867,10.043676376342773,3.5092532634735107,-4.626590251922607,7.902543067932129,0.7012733221054077,1.1459832191467285,1.6395623683929443,0.13748100399971008,-0.2516840100288391,0.9366289973258972,Hello
3,0.538702273002855,2.145204782485962,-8.01339340209961,10.251971244812012,3.209930658340454,-4.606688022613525,8.040221214294434,0.7684684991836548,1.0054842233657837,1.2180652618408203,0.13748100399971008,-0.2516840100288391,0.9366289973258972,Hello
3,0.584300215999974,2.33913516998291,-6.315904140472412,9.928754806518555,2.9556875228881836,-4.563291072845459,8.16153621673584,0.6255260109901428,0.8613200187683105,0.9773843884468079,0.13748100399971008,-0.2516840100288391,0.9366289973258972,Hello
3,0.585104315003264,2.5665841102600098,-5.372588634490967,9.521739959716797,2.7457683086395264,-4.5580058097839355,8.237459182739258,0.1160643994808197,0.6939429044723511,0.8014551997184753,0.08260700106620789,-0.22756299376487732,0.9605720043182373,Hello
3,0.585479860001215,2.6575639247894287,-5.647922039031982,9.277531623840332,2.575450897216797,-4.617659091949463,8.259217262268066,-0.2321287989616394,0.5571091175079346,0.66584312915802,0.08260700106620789,-0.22756299376487732,0.9605720043182373,Hello
3,0.630315329002769,2.585737943649292,-6.076483726501465,9.837775230407715,2.4299981594085693,-4.684839725494385,8.265457153320312,-0.1258382350206375,0.5021312236785889,0.6133087277412415,0.08260700106620789,-0.22756299376487732,0.9605720043182373,Hello
3,0.631939033002709,2.140416383743286,-6.2201361656188965,10.462661743164062,2.289372444152832,-4.728259563446045,8.280864715576172,-0.04642575979232788,0.46670106053352356,0.6841690540313721,0.08260700106620789,-0.22756299376487732,0.9605720043182373,Hello
3,0.679329280003003,2.118868589401245,-6.402095317840576,11.463438034057617,2.1649153232574463,-4.757622241973877,8.297502517700195,0.030543262138962746,0.33108896017074585,0.5155702829360962,0.08260700106620789,-0.22756299376487732,0.9605720043182373,Hello
3,0.680970514000364,2.3343467712402344,-5.801150798797607,9.8784761428833,2.105177640914917,-4.76901912689209,8.306327819824219,-0.05497787147760391,0.12095131725072861,0.3127630054950714,0.08260700106620789,-0.22756299376487732,0.9605720043182373,Hello
3,0.728594385000179,2.2816741466522217,-4.910507678985596,8.913613319396973,2.070310592651367,-4.790328025817871,8.302828788757324,0.012217304669320583,0.02076941914856434,0.07696902006864548,0.05898699909448624,-0.22984899580478668,0.9649440050125122,Hello
3,0.729115272002673,1.8195933103561401,-4.680664539337158,8.858546257019043,2.062062978744507,-4.774029731750488,8.314260482788086,0.09529497474431992,0.013439035043120384,-0.0403171069920063,0.05898699909448624,-0.22984899580478668,0.9649440050125122,Hello
3,0.731039020000026,1.86508309841156,-4.970362663269043,8.829815864562988,2.060122489929199,-4.767902374267578,8.318257331848145,-0.02932153269648552,-0.05497787147760391,-0.06352998316287994,0.05898699909448624,-0.22984899580478668,0.9649440050125122,Hello
3,0.777517471000465,1.946485996246338,-4.580107688903809,8.4108304977417,2.075263738632202,-4.768010139465332,8.314430236816406,0.019547687843441963,-0.09285151958465576,-0.11239920556545258,0.05898699909448624,-0.22984899580478668,0.9649440050125122,Hello
3,0.778241111001989,2.2433669567108154,-3.8283286094665527,8.439560890197754,2.1053853034973145,-4.745787143707275,8.31956958770752,0.1368338167667389,-0.06108652427792549,-0.1014036312699318,0.05898699909448624,-0.22984899580478668,0.9649440050125122,Hello
3,0.825395709001896,1.4891934394836426,-4.709394931793213,8.698134422302246,2.112067699432373,-4.715177059173584,8.33526611328125,0.15882496535778046,-0.051312681287527084,-0.07941248267889023,0.07044800370931625,-0.23318199813365936,0.9632049798965454,Hello
3,0.827047908001987,1.6352397203445435,-5.228936672210693,8.932766914367676,2.1157052516937256,-4.6972336769104,8.344470024108887,-0.09529497474431992,-0.08185594528913498,-0.10384709388017654,0.07044800370931625,-0.23318199813365936,0.9632049798965454,Hello
3,0.827631235002627,1.8171991109848022,-5.585672378540039,9.38048267364502,2.138918161392212,-4.717268943786621,8.327231407165527,-0.16982053220272064,-0.12095131725072861,-0.16249015927314758,0.07044800370931625,-0.23318199813365936,0.9632049798965454,Hello
3,0.874335836000682,1.656787633895874,-5.772420406341553,9.727641105651855,2.174170732498169,-4.7379150390625,8.306354522705078,-0.07819075137376785,-0.14416420459747314,-0.27977627515792847,0.07044800370931625,-0.23318199813365936,0.9632049798965454,Hello
3,0.875950390000071,1.9249382019042969,-6.244078159332275,10.259154319763184,2.2286906242370605,-4.738431930541992,8.291598320007324,-0.09285151958465576,-0.2565633952617645,-0.4349360466003418,0.07044800370931625,-0.23318199813365936,0.9632049798965454,Hello
3,0.927431046002312,2.607285737991333,-6.40927791595459,10.771512985229492,2.3231797218322754,-4.735853672027588,8.267098426818848,-0.1270599663257599,-0.4129449129104614,-0.6255260109901428,0.07877500355243683,-0.23614400625228882,0.9610130190849304,Hello
3,0.928125842001464,2.5067291259765625,-6.4595561027526855,11.350910186767578,2.4630625247955322,-4.722350120544434,8.234265327453613,-0.02321287989616394,-0.5461135506629944,-0.8148942589759827,0.07877500355243683,-0.23614400625228882,0.9610130190849304,Hello
3,0.928480362999835,3.0621838569641113,-5.6910176277160645,11.949460983276367,2.7029781341552734,-4.678109169006348,8.18410587310791,-0.14416420459747314,-0.7513642311096191,-0.9028588533401489,0.07877500355243683,-0.23614400625228882,0.9610130190849304,Hello
3,0.973610011002165,2.8443117141723633,-6.469132900238037,12.224793434143066,2.8581643104553223,-4.6654181480407715,8.138498306274414,-0.3738495409488678,-0.9896016716957092,-1.0604621171951294,0.07877500355243683,-0.23614400625228882,0.9610130190849304,Hello
3,0.974200461001601,3.0837318897247314,-7.783549785614014,11.741165161132812,3.1404166221618652,-4.674396991729736,8.028585433959961,-0.6548475623130798,-1.3377948999404907,-1.4196507930755615,0.07877500355243683,-0.23614400625228882,0.9610130190849304,Hello
3,1.02064573600001,3.576937437057495,-7.927201747894287,11.475408554077148,3.505305528640747,-4.68047571182251,7.872507095336914,-0.5167919993400574,-1.607797384262085,-1.7446311712265015,0.11886099725961685,-0.24557499587535858,0.9497810006141663,Hello
3,1.02182628700029,3.6966474056243896,-7.630321025848389,11.025299072265625,3.934415102005005,-4.616076469421387,7.7060112953186035,-0.30054569244384766,-1.8313740491867065,-2.120924234390259,0.11886099725961685,-0.24557499587535858,0.9497810006141663,Hello
3,1.02245969100113,4.350264549255371,-7.738059997558594,10.280701637268066,4.425634384155273,-4.479763984680176,7.517702579498291,-0.24923302233219147,-2.122145891189575,-2.4801127910614014,0.11886099725961685,-0.24557499587535858,0.9497810006141663,Hello
3,1.06936502000099,4.3622355461120605,-6.9240312576293945,9.193734169006348,4.968123435974121,-4.281335830688477,7.290974140167236,-0.18936823308467865,-2.320066213607788,-2.8368582725524902,0.11886099725961685,-0.24557499587535858,0.9497810006141663,Hello
3,1.07005597399984,4.764461517333984,-6.13633918762207,8.133103370666504,5.541697978973389,-4.01200532913208,7.025937080383301,-0.18448130786418915,-2.4715607166290283,-3.1801645755767822,0.11886099725961685,-0.24557499587535858,0.9497810006141663,Hello
3,1.11836165000204,5.279214859008789,-5.360617637634277,7.259219646453857,6.120323181152344,-3.683039665222168,6.719171524047852,-0.25045475363731384,-2.554638385772705,-3.4990360736846924,0.23384900391101837,-0.2612850069999695,0.9065549969673157,Hello
3,1.11898946600195,5.305551052093506,-3.8810009956359863,5.48272180557251,6.690751552581787,-3.280022382736206,6.375396251678467,0.019547687843441963,-2.5167648792266846,-3.6920695304870605,0.23384900391101837,-0.2612850069999695,0.9065549969673157,Hello
3,1.12092222400315,4.941632270812988,-2.585737943649292,4.709394931793213,7.227103233337402,-2.7504351139068604,6.031125545501709,0.4105014503002167,-2.433687210083008,-3.751934289932251,0.23384900391101837,-0.2612850069999695,0.9065549969673157,Hello
3,1.1673715500001,5.188235282897949,-1.5514427423477173,3.6822822093963623,7.697824954986572,-2.138974666595459,5.686711311340332,0.34574973583221436,-2.3518311977386475,-3.82157301902771,0.23384900391101837,-0.2612850069999695,0.9065549969673157,Hello
3,1.16800886400233,5.916072368621826,0.38067805767059326,3.1052796840667725,8.097339630126953,-1.5003856420516968,5.3246893882751465,0.13316862285137177,-2.205223560333252,-3.810577392578125,0.23384900391101837,-0.2612850069999695,0.9065549969673157,Hello
3,1.21572793100131,5.961562156677246,0.7422025203704834,2.9472622871398926,8.490099906921387,-0.6730226278305054,4.861652374267578,0.03176499158143997,-1.99752938747406,-3.7201693058013916,0.36957401037216187,-0.2419549971818924,0.8237130045890808,Hello
3,1.21712834700156,5.803544998168945,0.912190854549408,1.7597382068634033,8.64311408996582,-0.23006606101989746,4.627531051635742,0.1918116807937622,-1.7654005289077759,-3.597996234893799,0.36957401037216187,-0.2419549971818924,0.8237130045890808,Hello
3,1.26440803300284,5.736507415771484,2.6024973392486572,1.460463047027588,8.7916841506958,0.42326927185058594,4.324062824249268,0.8393288254737854,-1.4672982692718506,-3.4318408966064453,0.36957401037216187,-0.2419549971818924,0.8237130045890808,Hello
3,1.26601099400068,6.229712963104248,4.355052947998047,0.8619126081466675,8.861884117126465,1.1092796325683594,4.050543785095215,1.1203268766403198,-1.2510520219802856,-3.126408338546753,0.36957401037216187,-0.2419549971818924,0.8237130045890808,Hello
3,1.31340571100009,6.600813865661621,4.843470096588135,0.7422025203704834,8.873015403747559,1.751796007156372,3.7909345626831055,0.9187413454055786,-1.0213667154312134,-2.6975808143615723,0.36957401037216187,-0.2419549971818924,0.8237130045890808,Hello
3,1.31412690700017,6.576871871948242,5.233725070953369,1.158793568611145,8.838120460510254,2.3021862506866455,3.571826934814453,0.6279694437980652,-0.6963863968849182,-2.313957452774048,0.4851579964160919,-0.18231000006198883,0.7203050255775452,Hello
3,1.31601063500057,6.572083473205566,5.600037574768066,1.3239935636520386,8.768447875976562,2.759052276611328,3.4164836406707764,0.08918632566928864,-0.4593706727027893,-1.8887953758239746,0.4851579964160919,-0.18231000006198883,0.7203050255775452,Hello
3,1.36259468700155,7.350199222564697,5.250484466552734,1.2521674633026123,8.688246726989746,3.1123437881469727,3.3163371086120605,-0.33475416898727417,-0.2834414839744568,-1.4465289115905762,0.4851579964160919,-0.18231000006198883,0.7203050255775452,Hello
3,1.3632716730026,7.2783732414245605,4.6950297355651855,1.338358759880066,8.614652633666992,3.3437469005584717,3.2829151153564453,-0.588874101638794,-0.04398229718208313,-1.0641272068023682,0.4851579964160919,-0.18231000006198883,0.7203050255775452,Hello
3,1.36391778800316,5.69580602645874,3.97916316986084,4.247313976287842,8.547337532043457,3.4733965396881104,3.323990821838379,-0.6524040699005127,0.14049901068210602,-0.7159340381622314,0.4851579964160919,-0.18231000006198883,0.7203050255775452,Hello
3,1.41164712099999,6.179434776306152,8.403648376464844,4.412513732910156,8.470497131347656,3.609834909439087,3.3749306201934814,0.06719517707824707,0.08185594528913498,0.0012217304902151227,0.5164589881896973,-0.14444600045681,0.6654719710350037,Hello
3,1.41243138500067,7.304709434509277,3.7229835987091064,3.4524388313293457,8.463356971740723,3.635885715484619,3.3648641109466553,-0.3445279896259308,-0.1014036312699318,0.3335324227809906,0.5164589881896973,-0.14444600045681,0.6654719710350037,Hello
3,1.45926680200137,8.427590370178223,-0.2561795711517334,1.8579005002975464,8.517349243164062,3.4590907096862793,3.4146549701690674,-1.508837103843689,-0.1514945775270462,0.27977627515792847,0.5164589881896973,-0.14444600045681,0.6654719710350037,Hello
3,1.46082813600151,8.614337921142578,-0.011971008032560349,2.920926094055176,8.551936149597168,3.290546178817749,3.4938673973083496,-0.8759807348251343,0.0757472887635231,0.12828169763088226,0.5164589881896973,-0.14444600045681,0.6654719710350037,Hello
3,1.46141558300224,7.766790390014648,2.542642116546631,3.9911341667175293,8.548690795898438,3.242403745651245,3.546420097351074,0.15882496535778046,0.24434609711170197,0.00366519158706069,0.5164589881896973,-0.14444600045681,0.6654719710350037,Hello
3,1.50845019100234,7.560888767242432,4.922478675842285,4.091690540313721,8.513747215270996,3.317826986312866,3.560694694519043,0.5448917746543884,0.2174680233001709,0.02932153269648552,0.4986039996147156,-0.166594997048378,0.6622099876403809,Hello
3,1.50901703400086,8.04930591583252,6.090848922729492,3.466804027557373,8.496585845947266,3.379483699798584,3.5436556339263916,0.46792277693748474,0.13439035415649414,0.1563815027475357,0.4986039996147156,-0.166594997048378,0.6622099876403809,Hello
3,1.60562650000065,8.59997272491455,7.168240070343018,1.9919757843017578,8.49593734741211,3.4027364253997803,3.522900104522705,0.22479841113090515,0.09529497474431992,0.4129449129104614,0.4986039996147156,-0.166594997048378,0.6622099876403809,Hello
3,1.60703166500025,8.755595207214355,6.325480937957764,2.7293899059295654,8.531709671020508,3.318828582763672,3.5164902210235596,0.1514945775270462,0.2125810980796814,0.817337691783905,0.4986039996147156,-0.166594997048378,0.6622099876403809,Hello
3,1.60764858600305,8.473079681396484,8.391676902770996,4.426878929138184,8.57025146484375,3.165940999984741,3.5634233951568604,0.30054569244384766,0.5424483418464661,1.2852604389190674,0.4986039996147156,-0.166594997048378,0.6622099876403809,Hello
3,1.61033899800168,8.279149055480957,10.20887565612793,3.5194764137268066,8.623661994934082,2.9266433715820312,3.638352155685425,0.5913175344467163,0.7000515460968018,2.024407386779785,0.4979639947414398,-0.15928100049495697,0.6785560250282288,Hello
3,1.61101130400129,8.31985092163086,9.224859237670898,1.8962076902389526,8.704975128173828,2.565195083618164,3.7166638374328613,0.7819074988365173,0.7965682744979858,2.805093288421631,0.4979639947414398,-0.15928100049495697,0.6785560250282288,Hello
3,1.65472670600138,7.7643961906433105,7.524975776672363,2.7269957065582275,8.771564483642578,2.131450653076172,3.8323562145233154,0.8442157506942749,1.187522053718567,3.3646457195281982,0.4979639947414398,-0.15928100049495697,0.6785560250282288,Hello
3,1.65597689100105,7.156269073486328,5.7341132164001465,3.5625722408294678,8.777073860168457,1.9077359437942505,3.9362313747406006,0.28955012559890747,1.4563027620315552,3.7873644828796387,0.4979639947414398,-0.15928100049495697,0.6785560250282288,Hello
3,1.70352749700032,6.856993675231934,0.7326257228851318,4.367023944854736,8.779098510742188,1.251584768295288,4.187049388885498,0.11850785464048386,1.587027907371521,4.056145191192627,0.4979639947414398,-0.15928100049495697,0.6785560250282288,Hello
3,1.70409769300022,5.872976779937744,-3.557783842086792,6.057330131530762,8.708386421203613,0.504071831703186,4.481106758117676,0.3897320330142975,1.6578882932662964,4.087910175323486,0.44999900460243225,-0.18414799869060516,0.7736769914627075,Hello
3,1.75250827200216,3.3901896476745605,-10.793061256408691,9.603142738342285,8.497109413146973,-0.3391536474227905,4.884106636047363,1.1936306953430176,1.7922786474227905,3.740938663482666,0.44999900460243225,-0.18414799869060516,0.7736769914627075,Hello
3,1.75307609300216,4.1874589920043945,-13.991714477539062,9.890447616577148,8.354364395141602,-0.6827440857887268,5.0900750160217285,0.5436700582504272,1.4550809860229492,2.8038713932037354,0.44999900460243225,-0.18414799869060516,0.7736769914627075,Hello
3,1.75590514299984,5.513846397399902,-12.172121047973633,9.095572471618652,8.132292747497559,-1.1303178071975708,5.362701892852783,0.3433062732219696,0.8979719281196594,1.6212363243103027,0.44999900460243225,-0.18414799869060516,0.7736769914627075,Hello
3,1.80040962800194,7.508216381072998,-7.062894821166992,7.529764175415039,8.042383193969727,-1.271990418434143,5.465576171875,0.2993239760398865,0.33719760179519653,0.4056145250797272,0.44999900460243225,-0.18414799869060516,0.7736769914627075,Hello
3,1.80210066000291,8.777143478393555,-3.177105665206909,6.325480937957764,8.025260925292969,-1.2622171640396118,5.492939472198486,0.3481931984424591,-0.0708603709936142,-0.21135938167572021,0.3799870014190674,-0.1962359994649887,0.8537449836730957,Hello
3,1.8493741300008,9.265560150146484,0.05267243832349777,4.9152960777282715,8.071925163269043,-1.1712722778320312,5.444497108459473,0.06475171446800232,-0.37262779474258423,-0.43615779280662537,0.3799870014190674,-0.1962359994649887,0.8537449836730957,Hello
3,1.85280697000053,9.071630477905273,2.056619167327881,4.584896087646484,8.134905815124512,-1.0654504299163818,5.372010707855225,-0.04642575979232788,-0.44226643443107605,-0.3787364661693573,0.3799870014190674,-0.1962359994649887,0.8537449836730957,Hello
3,1.85347320000074,8.286332130432129,2.655169725418091,4.338293552398682,8.243400573730469,-0.8751502633094788,5.239355087280273,-0.17592918872833252,-0.31031954288482666,-0.14782938361167908,0.3799870014190674,-0.1962359994649887,0.8537449836730957,Hello
3,1.89825642700089,7.773972988128662,1.9297266006469727,3.928884983062744,8.285321235656738,-0.8536831140518188,5.176395416259766,-0.3836233615875244,-0.15393804013729095,0.1466076523065567,0.3799870014190674,-0.1962359994649887,0.8537449836730957,Hello
3,1.89885351300109,7.204153060913086,0.9193734526634216,4.005499362945557,8.291718482971191,-0.9382789134979248,5.151450157165527,-0.4141666293144226,0.03787364438176155,0.44837507605552673,0.3929139971733093,-0.19602300226688385,0.845553994178772,Hello
3,1.94760366700211,6.54574728012085,0.24899697303771973,3.998316764831543,8.26569652557373,-1.0732237100601196,5.166898727416992,-0.32620203495025635,0.2626720666885376,0.6805039048194885,0.3929139971733093,-0.19602300226688385,0.845553994178772,Hello
3,1.94829664700228,6.490680694580078,-0.17238251864910126,3.8067808151245117,8.232405662536621,-1.1789137125015259,5.196927547454834,-0.21991148591041565,0.4691445231437683,0.8930850028991699,0.3929139971733093,-0.19602300226688385,0.845553994178772,Hello
3,1.94983402500293,6.399701118469238,-0.6655880808830261,3.4572272300720215,8.155732154846191,-1.355499505996704,5.274188041687012,-0.11850785464048386,0.7171558141708374,1.0836749076843262,0.3929139971733093,-0.19602300226688385,0.845553994178772,Hello
3,1.99638930200308,6.035782337188721,-0.9145850539207458,3.4572272300720215,7.996964454650879,-1.6170529127120972,5.440963268280029,-0.1062905490398407,1.0103710889816284,1.2400563955307007,0.3929139971733093,-0.19602300226688385,0.845553994178772,Hello
3,1.9969523740001,6.143521785736084,-1.192312479019165,3.093308687210083,7.822879791259766,-1.8418501615524292,5.619655132293701,-0.1111774742603302,1.3255776166915894,1.4013248682022095,0.36162498593330383,-0.21615900099277496,0.863182008266449,Hello
3,2.04434213200148,5.817910194396973,-2.4420857429504395,2.9544448852539062,7.669817924499512,-2.0126380920410156,5.770057678222656,-0.1270599663257599,1.683544635772705,1.549154281616211,0.36162498593330383,-0.21615900099277496,0.863182008266449,Hello
3,2.04612102700048,5.106832027435303,-3.428496837615967,3.7421371936798096,7.298932075500488,-2.3448030948638916,6.115382194519043,-0.07452555745840073,1.9950858354568481,1.6212363243103027,0.36162498593330383,-0.21615900099277496,0.863182008266449,Hello
3,2.04672998500246,5.262455463409424,-3.6152446269989014,4.812345504760742,7.062761306762695,-2.5262575149536133,6.317105770111084,-0.08185594528913498,2.138028383255005,1.6493362188339233,0.36162498593330383,-0.21615900099277496,0.863182008266449,Hello
3,2.09353124900008,5.214571475982666,-3.1651346683502197,6.339846134185791,6.571487903594971,-2.8451457023620605,6.700080394744873,-0.08918632566928864,2.2711970806121826,1.6505578756332397,0.36162498593330383,-0.21615900099277496,0.863182008266449,Hello
3,2.09427388600307,4.6040496826171875,-4.489128112792969,7.546523571014404,6.235267639160156,-3.0662474632263184,6.920257568359375,-0.28955012559890747,2.2797491550445557,1.663996934890747,0.26042699813842773,-0.222121000289917,0.9109950065612793,Hello
3,2.1425169130016,4.853046894073486,-3.8786067962646484,7.189787864685059,5.772540092468262,-3.3637282848358154,7.178684234619141,-0.5791002511978149,2.1649065017700195,1.644449234008789,0.26042699813842773,-0.222121000289917,0.9109950065612793,Hello
3,2.14332694900077,4.692635536193848,-3.8067808151245117,6.88332986831665,5.338293075561523,-3.642383337020874,7.376046657562256,-0.4129449129104614,2.1123719215393066,1.683544635772705,0.26042699813842773,-0.222121000289917,0.9109950065612793,Hello
3,2.14490476600258,3.825934410095215,-4.129997730255127,8.367734909057617,4.8716535568237305,-3.8794987201690674,7.575411796569824,-0.09651670604944229,2.1038198471069336,1.63467538356781,0.26042699813842773,-0.222121000289917,0.9109950065612793,Hello
3,2.19027502200333,3.141192674636841,-4.898536682128906,10.259154319763184,4.411243438720703,-4.044116973876953,7.768939971923828,0.03787364438176155,1.948660135269165,1.5699236392974854,0.26042699813842773,-0.222121000289917,0.9109950065612793,Hello
3,2.19338595600129,3.0310592651367188,-6.299144744873047,10.560823440551758,3.97880482673645,-4.18087100982666,7.928418159484863,-0.1160643994808197,1.7336355447769165,1.4404202699661255,0.13805599510669708,-0.22909100353717804,0.9465389847755432,Hello
3,2.2394163650024,3.1292216777801514,-4.599261283874512,10.261548042297363,3.585570812225342,-4.310458660125732,8.045744895935059,-0.013439035043120384,1.5149458646774292,1.3451253175735474,0.13805599510669708,-0.22909100353717804,0.9465389847755432,Hello
3,2.24089011700198,1.7860745191574097,-4.534617900848389,11.159374237060547,3.2177515029907227,-4.389288425445557,8.157855987548828,0.35674530267715454,1.4367550611495972,1.3768903017044067,0.13805599510669708,-0.22909100353717804,0.9465389847755432,Hello
3,2.28957406100017,1.414973258972168,-6.27280855178833,10.584765434265137,2.8655543327331543,-4.421228885650635,8.271137237548828,0.015882495790719986,1.1545352935791016,1.0995573997497559,0.13805599510669708,-0.22909100353717804,0.9465389847755432,Hello
3,2.29019412400157,1.8411411046981812,-6.885724067687988,10.685321807861328,2.5896544456481934,-4.501152038574219,8.318877220153809,-0.26511552929878235,0.8894197940826416,0.8784242272377014,0.13805599510669708,-0.22909100353717804,0.9465389847755432,Hello
3,2.29185498400329,1.556231141090393,-5.43723201751709,11.133037567138672,2.363334894180298,-4.576979160308838,8.344837188720703,0.14294247329235077,0.8136724829673767,0.7464773058891296,0.05616600066423416,-0.22364600002765656,0.9635949730873108,Hello
3,2.33755350100182,1.2306196689605713,-4.400542736053467,10.845733642578125,2.161397695541382,-4.569199562072754,8.403639793395996,0.2968805134296417,0.6792821288108826,0.6585127115249634,0.05616600066423416,-0.22364600002765656,0.9635949730873108,Hello
3,2.33828475400151,0.7254431247711182,-4.489128112792969,9.600749015808105,1.9842196702957153,-4.567202091217041,8.448308944702148,-0.34574973583221436,0.43737950921058655,0.6438519954681396,0.05616600066423416,-0.22364600002765656,0.9635949730873108,Hello
3,2.38538340800005,0.8762778043746948,-5.722142219543457,11.731588363647461,1.8515238761901855,-4.680332183837891,8.41645622253418,-0.7953465580940247,0.23945917189121246,0.5595525503158569,0.05616600066423416,-0.22364600002765656,0.9635949730873108,Hello
3,2.43474377800158,1.8746598958969116,-13.184868812561035,13.005303382873535,1.7684481143951416,-4.819514751434326,8.355552673339844,0.02932153269648552,-0.3604104816913605,0.6291912198066711,0.05616600066423416,-0.22364600002765656,0.9635949730873108,Hello
3,2.43602476400338,4.134786128997803,-2.8850131034851074,7.407660007476807,1.863934874534607,-4.809165000915527,8.340747833251953,0.9162978529930115,-0.2528982162475586,0.012217304669320583,0.02611600048840046,-0.23009100556373596,0.9668009877204895,Hello
3,2.43664587500098,1.2425906658172607,-1.9105730056762695,9.246406555175781,1.9059234857559204,-4.535575866699219,8.483301162719727,1.1288789510726929,-0.02687807008624077,0.2528982162475586,0.02611600048840046,-0.23009100556373596,0.9668009877204895,Hello
3,2.43885192800008,1.802833914756775,-4.553771495819092,9.375694274902344,1.8976279497146606,-4.3943867683410645,8.559133529663086,0.2064724564552307,-0.12828169763088226,-0.18936823308467865,0.02611600048840046,-0.23009100556373596,0.9668009877204895,Hello
3,2.48325828400266,1.9369091987609863,-3.0765492916107178,8.973467826843262,1.94176185131073,-4.309041976928711,8.592561721801758,0.38117989897727966,-0.015882495790719986,0.06475171446800232,0.02611600048840046,-0.23009100556373596,0.9668009877204895,Hello
3,2.4837910440001,1.2856862545013428,-3.272873640060425,8.987833023071289,1.9300838708877563,-4.2371602058410645,8.630853652954102,0.3885102868080139,0.10262536257505417,-0.05497787147760391,0.02611600048840046,-0.23009100556373596,0.9668009877204895,Hello
3,2.48626410500219,0.9600749015808105,-4.285621166229248,8.911218643188477,1.8668557405471802,-4.1990838050842285,8.663309097290039,-0.10262536257505417,0.03420845419168472,0.07208210229873657,0.03404499962925911,-0.20108899474143982,0.9735090136528015,Hello
3,2.53262186700158,1.4053963422775269,-4.491522312164307,8.834604263305664,1.8462903499603271,-4.232842922210693,8.65127944946289,-0.19425514340400696,-0.015882495790719986,0.036651913076639175,0.03404499962925911,-0.20108899474143982,0.9735090136528015,Hello
3,2.58029784000246,1.1109095811843872,-4.132391929626465,8.695740699768066,1.8261903524398804,-4.265225410461426,8.639633178710938,0.00366519158706069,-0.021991148591041565,0.012217304669320583,0.03404499962925911,-0.20108899474143982,0.9735090136528015,Hello
3,2.58204202300112,1.1994950771331787,-4.177882194519043,8.645462036132812,1.8130282163619995,-4.26968240737915,8.640204429626465,-0.045204028487205505,-0.07819075137376785,-0.0024434609804302454,0.03404499962925911,-0.20108899474143982,0.9735090136528015,Hello
3,2.58381672700125,1.625662922859192,-4.876988887786865,8.38688850402832,1.8070428371429443,-4.297140598297119,8.627836227416992,-0.10262536257505417,-0.11484266817569733,-0.03176499158143997,0.03404499962925911,-0.20108899474143982,0.9735090136528015,Hello
3,2.6295211100005,1.9560627937316895,-4.790797710418701,8.513781547546387,1.8330384492874146,-4.32256555557251,8.60963249206543,0.04398229718208313,-0.06475171446800232,-0.05253441259264946,0.03493199869990349,-0.20465800166130066,0.9728400111198425,Hello
3,2.63015751700004,1.8052281141281128,-3.847482204437256,8.913613319396973,1.8440666198730469,-4.2787370681762695,8.629149436950684,0.30543261766433716,0.009773843921720982,-0.03420845419168472,0.03493199869990349,-0.20465800166130066,0.9728400111198425,Hello
4,1.81499854079448e-06,1.745373010635376,-2.3343467712402344,9.428366661071777,1.8032718896865845,-2.3796064853668213,9.341095924377441,-0.0012217304902151227,-0.0012217304902151227,-0.0012217304902151227,0.081325002014637,-0.12435100227594376,0.9877520203590393,Hello
4,0.0454725749987119,1.6304513216018677,-2.4660277366638184,9.378087997436523,1.8012663125991821,-2.3807902336120605,9.341181755065918,-0.006108652334660292,-0.00366519158706069,-0.0024434609804302454,0.081325002014637,-0.12435100227594376,0.9877520203590393,Hello
4,0.0481857550003042,1.659181833267212,-2.3965959548950195,9.409213066101074,1.803356647491455,-2.3824470043182373,9.34035587310791,-0.006108652334660292,-0.006108652334660292,-0.0012217304902151227,0.081325002014637,-0.12435100227594376,0.9877520203590393,Hello
4,0.0498128109975369,1.656787633895874,-2.434903144836426,9.457097053527832,1.8024771213531494,-2.3846569061279297,9.339961051940918,-0.009773843921720982,-0.00855211354792118,-0.00366519158706069,0.081325002014637,-0.12435100227594376,0.9877520203590393,Hello
4,0.0965678389984532,1.6496049165725708,-2.43011474609375,9.466673851013184,1.8030211925506592,-2.386003255844116,9.33951187133789,-0.009773843921720982,-0.00733038317412138,-0.004886921960860491,0.081325002014637,-0.12435100227594376,0.9877520203590393,Hello
4,0.097423412000353,1.6280571222305298,-2.365471363067627,9.387664794921875,1.8016453981399536,-2.381598472595215,9.340902328491211,0.004886921960860491,-0.0012217304902151227,0.0,0.08132199943065643,-0.12431900203227997,0.9877610206604004,Hello
4,0.0980440349994751,1.6615760326385498,-2.3989901542663574,9.41400146484375,1.803325891494751,-2.3871500492095947,9.339159965515137,-0.00733038317412138,-0.004886921960860491,-0.004886921960860491,0.081325002014637,-0.12435100227594376,0.9877520203590393,Hello
4,0.0985525590003817,1.6927006244659424,-2.3056161403656006,9.44752025604248,1.8044794797897339,-2.387238025665283,9.33891487121582,-0.006108652334660292,-0.0024434609804302454,-0.00855211354792118,0.081325002014637,-0.12435100227594376,0.9877520203590393,Hello
4,0.1455955479978,1.6950948238372803,-2.3535003662109375,9.469067573547363,1.8071253299713135,-2.3877451419830322,9.338274002075195,-0.01466076634824276,-0.004886921960860491,-0.010995574295520782,0.08158700168132782,-0.12469799816608429,0.9876779913902283,Hello
4,0.146453915000166,1.6974890232086182,-2.2840683460235596,9.44752025604248,1.8084598779678345,-2.389446496963501,9.337579727172852,-0.024434609338641167,-0.009773843921720982,-0.015882495790719986,0.08158700168132782,-0.12469799816608429,0.9876779913902283,Hello
4,0.147006511000654,1.7166426181793213,-2.3295583724975586,9.502586364746094,1.8125698566436768,-2.391244411468506,9.336323738098145,-0.019547687843441963,-0.00855211354792118,-0.024434609338641167,0.08158700168132782,-0.12469799816608429,0.9876779913902283,Hello
4,0.193266702997789,1.7142484188079834,-2.346317768096924,9.50737476348877,1.8150287866592407,-2.393049716949463,9.335382461547852,-0.025656340643763542,-0.00855211354792118,-0.025656340643763542,0.08158700168132782,-0.12469799816608429,0.9876779913902283,Hello
4,0.194025962999149,1.7070658206939697,-2.4636335372924805,9.397241592407227,1.8183529376983643,-2.400024890899658,9.332945823669434,-0.039095375686883926,-0.013439035043120384,-0.02076941914856434,0.08158700168132782,-0.12469799816608429,0.9876779913902283,Hello
4,0.242176378000295,1.647210717201233,-2.5258827209472656,9.327810287475586,1.8196864128112793,-2.411529064178467,9.329718589782715,-0.0354301854968071,-0.010995574295520782,-0.010995574295520782,0.08206900209188461,-0.1257849931716919,0.9874529838562012,Hello
4,0.242823889999272,1.7262194156646729,-2.4851813316345215,9.428366661071777,1.821690320968628,-2.4156222343444824,9.328269004821777,0.00733038317412138,-0.006108652334660292,-0.010995574295520782,0.08206900209188461,-0.1257849931716919,0.9874529838562012,Hello
4,0.290669231999345,1.723825216293335,-2.3774423599243164,9.44752025604248,1.8242026567459106,-2.4108238220214844,9.329019546508789,0.03420845419168472,0.0024434609804302454,-0.0012217304902151227,0.08206900209188461,-0.1257849931716919,0.9874529838562012,Hello
4,0.292173085999821,1.6352397203445435,-2.293645143508911,9.466673851013184,1.8225880861282349,-2.4033541679382324,9.33126163482666,0.02687807008624077,0.00366519158706069,0.0,0.08206900209188461,-0.1257849931716919,0.9874529838562012,Hello
4,0.292766189999384,1.7070658206939697,-2.3989901542663574,9.461885452270508,1.8220523595809937,-2.401489019393921,9.331846237182617,0.0024434609804302454,0.0,0.00366519158706069,0.08206900209188461,-0.1257849931716919,0.9874529838562012,Hello
4,0.340496082000755,1.778891921043396,-2.4468741416931152,9.433155059814453,1.822004795074463,-2.402930974960327,9.3314847946167,0.0,0.0024434609804302454,0.0024434609804302454,0.08215200155973434,-0.12558099627494812,0.9874619841575623,Hello
4,0.34144245099742,1.723825216293335,-2.449268341064453,9.370905876159668,1.8215923309326172,-2.4023051261901855,9.331727027893066,0.010995574295520782,0.00366519158706069,0.0,0.08215200155973434,-0.12558099627494812,0.9874619841575623,Hello
4,0.390188695000688,1.7286136150360107,-2.3798365592956543,9.47146224975586,1.8198859691619873,-2.4006991386413574,9.332472801208496,0.010995574295520782,0.0012217304902151227,0.0024434609804302454,0.08215200155973434,-0.12558099627494812,0.9874619841575623,Hello
4,0.39084207400083,1.6831238269805908,-2.3798365592956543,9.39245319366455,1.819567322731018,-2.398432970046997,9.333117485046387,0.00855211354792118,0.00366519158706069,0.0012217304902151227,0.08215200155973434,-0.12558099627494812,0.9874619841575623,Hello
4,0.391168518999621,1.7501614093780518,-2.3774423599243164,9.445125579833984,1.8209507465362549,-2.396170139312744,9.333429336547852,0.009773843921720982,0.0024434609804302454,0.0,0.08215200155973434,-0.12558099627494812,0.9874619841575623,Hello
4,0.437832191997586,1.6663644313812256,-2.341529369354248,9.500192642211914,1.8195282220840454,-2.3933558464050293,9.334428787231445,0.00855211354792118,0.00366519158706069,-0.0024434609804302454,0.08200199902057648,-0.1252630054950714,0.9875190258026123,Hello
4,0.438501074997475,1.7190368175506592,-2.4372973442077637,9.406818389892578,1.82028329372406,-2.3928725719451904,9.334404945373535,-0.0012217304902151227,-0.0012217304902151227,-0.00366519158706069,0.08200199902057648,-0.1252630054950714,0.9875190258026123,Hello
4,0.486271475998365,1.7190368175506592,-2.3127987384796143,9.437943458557129,1.8215733766555786,-2.391963481903076,9.334385871887207,-0.009773843921720982,-0.004886921960860491,-0.004886921960860491,0.08200199902057648,-0.1252630054950714,0.9875190258026123,Hello
4,0.486812687999191,1.6927006244659424,-2.3726539611816406,9.41639518737793,1.8225481510162354,-2.3943984508514404,9.333572387695312,-0.015882495790719986,-0.0024434609804302454,-0.009773843921720982,0.08200199902057648,-0.1252630054950714,0.9875190258026123,Hello
4,0.487801450999541,1.742978811264038,-2.389413356781006,9.32541561126709,1.8235219717025757,-2.397103786468506,9.332687377929688,-0.00366519158706069,0.010995574295520782,-0.024434609338641167,0.08200199902057648,-0.1252630054950714,0.9875190258026123,Hello
4,0.536501877999399,1.7334020137786865,-2.2409727573394775,9.607931137084961,1.821009635925293,-2.3937737941741943,9.33403205871582,0.00733038317412138,0.03420845419168472,-0.042760565876960754,0.08200299739837646,-0.1255359947681427,0.9874650239944458,Hello
4,0.53739544599739,1.7980455160140991,-2.0207061767578125,9.68933391571045,1.8160309791564941,-2.3860697746276855,9.336974143981934,-0.010995574295520782,0.08552113175392151,-0.08429940044879913,0.08200299739837646,-0.1255359947681427,0.9874650239944458,Hello
4,0.583356290997472,1.8986018896102905,-2.1571757793426514,9.734824180603027,1.8035316467285156,-2.3948748111724854,9.337142944335938,-0.16982053220272064,0.12828169763088226,-0.08185594528913498,0.08200299739837646,-0.1255359947681427,0.9874650239944458,Hello
4,0.583890936999524,1.721431016921997,-2.276885747909546,9.63187313079834,1.7794370651245117,-2.4443018436431885,9.328953742980957,-0.38606682419776917,0.1771509200334549,-0.06963863968849182,0.08200299739837646,-0.1255359947681427,0.9874650239944458,Hello
4,0.632353199998761,1.8818424940109253,-1.8291701078414917,9.75637149810791,1.7512420415878296,-2.523700475692749,9.313135147094727,-0.5619960427284241,0.19792033731937408,-0.07819075137376785,0.08200299739837646,-0.1255359947681427,0.9874650239944458,Hello
4,0.632953079999425,1.6735470294952393,-2.0159177780151367,9.909601211547852,1.71749746799469,-2.637988567352295,9.287713050842285,-0.769690215587616,0.2541199326515198,-0.12217304855585098,0.0771849974989891,-0.13149400055408478,0.9867979884147644,Hello
4,0.634846097000263,1.1492167711257935,-2.279279947280884,10.113107681274414,1.6745269298553467,-2.798503875732422,9.24849796295166,-1.0103710889816284,0.24923302233219147,-0.16493362188339233,0.0771849974989891,-0.13149400055408478,0.9867979884147644,Hello
4,0.683320232998085,0.9457096457481384,-3.1244332790374756,9.124302864074707,1.640661358833313,-2.9347567558288574,9.212265014648438,-1.1753047704696655,0.11484266817569733,-0.10751228034496307,0.0771849974989891,-0.13149400055408478,0.9867979884147644,Hello
4,0.684254448999127,1.3024457693099976,-4.881777286529541,9.909601211547852,1.6328284740447998,-3.1561014652252197,9.140201568603516,-1.1582005023956299,-0.013439035043120384,-0.26511552929878235,0.0771849974989891,-0.13149400055408478,0.9867979884147644,Hello
4,0.729325288997643,1.2306196689605713,-4.424484729766846,10.54645824432373,1.6735752820968628,-3.3880767822265625,9.049335479736328,-0.7660250067710876,-0.14905111491680145,-0.2773328125476837,0.0771849974989891,-0.13149400055408478,0.9867979884147644,Hello
4,0.730825719998393,1.2306196689605713,-4.015076160430908,11.537657737731934,1.7119189500808716,-3.4531052112579346,9.017526626586914,-0.3787364661693573,-0.27611109614372253,-0.3933972120285034,0.06953399628400803,-0.17405900359153748,0.9799110293388367,Hello
4,0.731513112998073,0.9528923034667969,-5.207388877868652,12.102689743041992,1.8243725299835205,-3.5475144386291504,8.958638191223145,-0.588874101638794,-0.42149701714515686,-0.2431243658065796,0.06953399628400803,-0.17405900359153748,0.9799110293388367,Hello
4,0.778245231998881,2.4229321479797363,-5.592854976654053,9.945513725280762,1.9761390686035156,-3.6804094314575195,8.872420310974121,-0.9053022861480713,-0.8393288254737854,-0.5314527750015259,0.06953399628400803,-0.17405900359153748,0.9799110293388367,Hello
4,0.778865435000625,2.2242133617401123,-6.215347766876221,10.108319282531738,2.1154117584228516,-3.778163433074951,8.798914909362793,-0.8234463334083557,-0.9358455538749695,-0.6352998614311218,0.06953399628400803,-0.17405900359153748,0.9799110293388367,Hello
4,0.827335589998256,2.3080103397369385,-5.5760955810546875,11.264719009399414,2.411038875579834,-3.9092891216278076,8.664568901062012,-0.6279694437980652,-1.0604621171951294,-0.7745771408081055,0.06953399628400803,-0.17405900359153748,0.9799110293388367,Hello
4,0.828043445999356,2.315192937850952,-5.238513469696045,11.73398208618164,2.6832637786865234,-3.97471284866333,8.554071426391602,-0.6536257863044739,-1.274264931678772,-0.9346238374710083,0.1041179969906807,-0.2075909972190857,0.9686099886894226,Hello
4,0.829769957999815,3.1244332790374756,-5.623979568481445,11.499350547790527,2.905491590499878,-4.02575159072876,8.45705795288086,-0.9224064946174622,-1.518610954284668,-1.2473868131637573,0.1041179969906807,-0.2075909972190857,0.9686099886894226,Hello
4,0.876198121997732,3.5410242080688477,-5.722142219543457,10.201693534851074,3.2732648849487305,-4.109254360198975,8.280710220336914,-1.026253581047058,-1.6908750534057617,-1.3976596593856812,0.1041179969906807,-0.2075909972190857,0.9686099886894226,Hello
4,0.876830337998399,3.5051112174987793,-6.469132900238037,9.53849983215332,3.8043532371520996,-4.195852279663086,8.005754470825195,-1.0384708642959595,-1.794722080230713,-1.6175711154937744,0.1041179969906807,-0.2075909972190857,0.9686099886894226,Hello
4,0.924254877998465,3.7828385829925537,-6.993463039398193,9.059659004211426,4.244815349578857,-4.22434139251709,7.765749931335449,-1.0348057746887207,-1.8790215253829956,-1.9559905529022217,0.1041179969906807,-0.2075909972190857,0.9686099886894226,Hello
4,0.925845475998358,4.548983097076416,-7.326257228851318,8.465897560119629,4.567754745483398,-4.2061262130737305,7.5904221534729,-0.769690215587616,-1.8875735998153687,-2.283414363861084,0.19153499603271484,-0.25059300661087036,0.9381359815597534,Hello
4,0.975043671998719,4.917690277099609,-7.007828235626221,8.022970199584961,5.192914962768555,-4.042198657989502,7.270809650421143,-0.5705481171607971,-1.9132299423217773,-2.613281488418579,0.19153499603271484,-0.25059300661087036,0.9381359815597534,Hello
4,0.975779045998934,5.037400245666504,-6.466738700866699,6.967126846313477,5.678893089294434,-3.820073366165161,7.023360729217529,-0.3494149148464203,-1.8961256742477417,-2.8991663455963135,0.19153499603271484,-0.25059300661087036,0.9381359815597534,Hello
4,0.976884027997585,5.57370138168335,-5.166687488555908,6.129156112670898,6.1473708152771,-3.5492498874664307,6.766316890716553,-0.28466320037841797,-1.8558086156845093,-3.09586501121521,0.19153499603271484,-0.25059300661087036,0.9381359815597534,Hello
4,1.02237140999932,5.5760955810546875,-3.4548330307006836,5.5545477867126465,6.469021797180176,-3.3127994537353516,6.583882808685303,-0.48869219422340393,-1.8154915571212769,-3.232698917388916,0.19153499603271484,-0.25059300661087036,0.9381359815597534,Hello
4,1.0231241750007,5.928043365478516,-2.8874073028564453,5.039794445037842,7.033752918243408,-2.8390510082244873,6.215826511383057,-0.6230825781822205,-1.7983872890472412,-3.2840116024017334,0.29526299238204956,-0.2570270001888275,0.8853870034217834,Hello
4,1.07035266599996,6.251260757446289,-1.8746598958969116,4.671087741851807,7.426009178161621,-2.4505198001861572,5.9177470207214355,-0.7721336483955383,-1.712866187095642,-3.3096678256988525,0.29526299238204956,-0.2570270001888275,0.8853870034217834,Hello
4,1.0718040669999,6.169857978820801,-1.0103530883789062,4.163516521453857,7.7694573402404785,-2.036470413208008,5.626606464385986,-0.7489207983016968,-1.6016886234283447,-3.297450542449951,0.29526299238204956,-0.2570270001888275,0.8853870034217834,Hello
4,1.07236713999737,6.3973069190979,-0.23942017555236816,3.8379054069519043,8.065537452697754,-1.5911610126495361,5.346560001373291,-0.4141666293144226,-1.5418238639831543,-3.165503740310669,0.29526299238204956,-0.2570270001888275,0.8853870034217834,Hello
4,1.11931423399801,6.150704383850098,0.8690952062606812,3.512293815612793,8.234647750854492,-1.2427756786346436,5.178465366363525,0.5632177591323853,-1.2657127380371094,-2.9749138355255127,0.29526299238204956,-0.2570270001888275,0.8853870034217834,Hello
4,1.12189939299788,6.064512729644775,1.9752163887023926,3.7852327823638916,8.459674835205078,-0.5129460096359253,4.933678150177002,0.8881980776786804,-1.0653489828109741,-2.780658483505249,0.39729800820350647,-0.2400989979505539,0.8045889735221863,Hello
4,1.16835772899867,6.332663536071777,2.183511972427368,3.488351821899414,8.544824600219727,-0.14048370718955994,4.81005334854126,0.3225368559360504,-0.9920451641082764,-2.4886651039123535,0.39729800820350647,-0.2400989979505539,0.8045889735221863,Hello
4,1.16989161499805,6.840234279632568,1.9584569931030273,3.287238836288452,8.657543182373047,0.3902569115161896,4.589664936065674,-0.45814892649650574,-0.8955284357070923,-2.2088887691497803,0.39729800820350647,-0.2400989979505539,0.8045889735221863,Hello
4,1.17066847499882,6.890512466430664,0.5530605912208557,3.4620156288146973,8.711441993713379,0.6870529055595398,4.450745105743408,-0.7550294399261475,-0.7428121566772461,-1.940108060836792,0.39729800820350647,-0.2400989979505539,0.8045889735221863,Hello
4,1.21716585299873,7.465120792388916,0.13407529890537262,3.1196448802948,8.744452476501465,0.9439560770988464,4.337501525878906,-0.5827654600143433,-0.6414085030555725,-1.7873916625976562,0.39729800820350647,-0.2400989979505539,0.8045889735221863,Hello
4,1.21795786899747,7.90086555480957,2.5115175247192383,3.1244332790374756,8.75856876373291,1.2327125072479248,4.2353620529174805,0.1563815027475357,-0.45692721009254456,-1.644449234008789,0.4496920108795166,-0.2164669930934906,0.7403929829597473,Hello
4,1.2653367319981,7.5201873779296875,2.5953147411346436,3.1914708614349365,8.748311042785645,1.536691665649414,4.156444072723389,0.31520646810531616,-0.2724458873271942,-1.4257594347000122,0.4496920108795166,-0.2164669930934906,0.7403929829597473,Hello
4,1.2670580060003,7.99184513092041,2.008735179901123,3.464409828186035,8.727262496948242,1.775091290473938,4.105403900146484,-0.17959438264369965,-0.22357667982578278,-1.2596040964126587,0.4496920108795166,-0.2164669930934906,0.7403929829597473,Hello
4,1.31414408799901,8.070854187011719,2.2697031497955322,3.9839515686035156,8.701147079467773,1.9652588367462158,4.074087142944336,-0.09040805697441101,-0.1417207419872284,-1.0677924156188965,0.4496920108795166,-0.2164669930934906,0.7403929829597473,Hello
